last_val_loss,dataset,ul2,causal_denoisers,noncausal_masking,causal_divider,s_divider,r_divider,x_divider,randomize_denoiser_settings,randomize_mask_width,no_special_tokens,alternate_denoisers,progressive_tasks,model_scale,depth,width,num_params,num_non_embedding_params,num_heads,linear_value,seed,run_num,max_epochs,max_steps,max_tokens,max_time_seconds,gpu_capacity_scalar,train_loss_causal,train_pplx_causal,train_acc_causal,train_loss_s,train_pplx_s,train_loss_r,train_pplx_r,train_loss_x,train_pplx_x,train_acc_x_causal,train_acc_r_causal,train_acc_s_causal,train_acc_x_masked,train_acc_r_masked,train_acc_s_masked,val_loss_causal,val_pplx_causal,val_acc_causal,val_loss_s,val_pplx_s,val_loss_r,val_pplx_r,val_loss_x,val_pplx_x,grad_norm,cumulative_time,tokens_seen,epoch,batch_size,seq_length,learning_rate,weight_decay
0.0,fineweb,false,false,false,1.0,0.0,0.0,0.0,false,false,false,false,false,1.0001001527155036,8,384,46014344,7376264,8,false,1600,1,1.0,1000000000,1000000000000,1000000000,0.7,"[10.9375, 7.21875, 6.65625, 6.5625, 6.53125, 6.28125, 6.21875, 6.0, 5.9375, 6.03125, 5.71875, 5.78125, 5.59375, 5.65625, 5.6875, 5.59375, 5.59375, 5.53125, 5.46875, 5.34375, 5.4375, 5.375, 5.40625, 5.3125, 5.3125, 5.34375, 5.15625, 5.15625, 5.25, 5.21875, 5.1875, 5.3125, 5.1875, 5.1875, 5.0, 5.15625, 5.09375, 5.0625, 5.0625, 4.96875, 5.125, 5.03125, 4.96875, 5.1875, 5.03125, 5.03125, 5.0, 4.96875, 4.90625, 4.9375, 4.96875, 4.8125, 4.84375, 4.8125, 4.78125, 4.90625, 4.78125, 4.84375, 4.71875, 4.75, 4.71875, 4.65625, 4.6875, 4.6875, 4.625, 4.5625, 4.75, 4.75, 4.59375, 4.5, 4.5, 4.34375, 4.5625, 4.59375, 4.40625, 4.5625, 4.5, 4.59375, 4.4375, 4.53125, 4.4375, 4.375, 4.5625, 4.59375, 4.5, 4.46875, 4.40625, 4.3125, 4.3125, 4.53125, 4.3125, 4.40625, 4.21875, 4.5, 4.34375, 4.40625, 4.28125, 4.25, 4.40625, 4.21875, 4.21875, 4.125, 4.21875, 4.21875, 4.125, 4.125, 4.125, 4.34375, 4.25, 4.125, 4.15625, 4.09375, 4.125, 4.21875, 4.34375, 4.125, 4.125, 4.125, 4.125, 4.28125, 4.15625, 4.03125, 4.15625, 4.25, 4.0, 4.0625, 3.96875, 4.15625, 4.125, 4.0625, 4.0625, 4.0625, 4.0625, 4.0625, 4.0, 4.0625, 4.0, 3.984375, 3.90625, 3.9375, 3.9375, 3.9375, 3.984375, 4.03125, 3.953125, 3.84375, 3.984375, 3.9375, 3.796875, 3.96875, 3.921875, 3.890625, 3.984375, 4.03125, 3.796875, 3.875, 3.890625, 3.890625, 3.90625, 3.859375, 3.890625, 3.734375, 3.765625, 3.78125, 3.9375, 3.921875, 3.640625, 3.765625, 3.765625, 3.828125, 3.875, 3.9375, 3.796875, 3.71875, 3.671875, 3.640625, 3.828125, 3.828125, 3.75, 3.734375, 3.703125, 3.671875, 3.75, 3.6875]","[56320.0, 1368.0, 780.0, 708.0, 688.0, 536.0, 502.0, 404.0, 380.0, 416.0, 304.0, 324.0, 270.0, 286.0, 296.0, 270.0, 270.0, 253.0, 237.0, 209.0, 230.0, 216.0, 223.0, 203.0, 203.0, 209.0, 174.0, 174.0, 191.0, 185.0, 179.0, 203.0, 179.0, 179.0, 149.0, 174.0, 163.0, 158.0, 158.0, 144.0, 168.0, 153.0, 144.0, 179.0, 153.0, 153.0, 149.0, 144.0, 135.0, 140.0, 144.0, 123.0, 127.0, 123.0, 119.5, 135.0, 119.5, 127.0, 112.0, 115.5, 112.0, 105.5, 108.5, 108.5, 102.0, 96.0, 115.5, 115.5, 99.0, 90.0, 90.0, 77.0, 96.0, 99.0, 82.0, 96.0, 90.0, 99.0, 84.5, 93.0, 84.5, 79.5, 96.0, 99.0, 90.0, 87.5, 82.0, 74.5, 74.5, 93.0, 74.5, 82.0, 68.0, 90.0, 77.0, 82.0, 72.5, 70.0, 82.0, 68.0, 68.0, 62.0, 68.0, 68.0, 62.0, 62.0, 62.0, 77.0, 70.0, 62.0, 64.0, 60.0, 62.0, 68.0, 77.0, 62.0, 62.0, 62.0, 62.0, 72.5, 64.0, 56.25, 64.0, 70.0, 54.75, 58.25, 53.0, 64.0, 62.0, 58.25, 58.25, 58.25, 58.25, 58.25, 54.75, 58.25, 54.75, 53.75, 49.75, 51.25, 51.25, 51.25, 53.75, 56.25, 52.25, 46.75, 53.75, 51.25, 44.5, 53.0, 50.5, 49.0, 53.75, 56.25, 44.5, 48.25, 49.0, 49.0, 49.75, 47.5, 49.0, 42.0, 43.25, 44.0, 51.25, 50.5, 38.25, 43.25, 43.25, 46.0, 48.25, 51.25, 44.5, 41.25, 39.25, 38.25, 46.0, 46.0, 42.5, 42.0, 40.5, 39.25, 42.5, 40.0]","[2.504006442904938e-05, 0.06840945780277252, 0.09224759787321091, 0.09362480044364929, 0.10033553838729858, 0.09597856551408768, 0.1012369841337204, 0.11636117845773697, 0.10874900221824646, 0.11801382154226303, 0.12074319273233414, 0.10496795177459717, 0.12197015434503555, 0.14588341116905212, 0.12888121604919434, 0.11075220257043839, 0.12091846764087677, 0.12269631773233414, 0.1199168711900711, 0.1300831288099289, 0.11931590735912323, 0.13794571161270142, 0.15347056090831757, 0.14455629885196686, 0.1414012461900711, 0.1254507154226303, 0.15822817385196686, 0.14718550443649292, 0.13133513927459717, 0.12399839609861374, 0.1287059336900711, 0.14490684866905212, 0.14059996604919434, 0.15236879885196686, 0.1429036408662796, 0.14931389689445496, 0.1420522928237915, 0.1432291716337204, 0.12750400602817535, 0.142578125, 0.13987380266189575, 0.12459935992956161, 0.13982371985912323, 0.11663661897182465, 0.15660056471824646, 0.15602463483810425, 0.14918869733810425, 0.12489984184503555, 0.15349559485912323, 0.14585837721824646, 0.15111678838729858, 0.12362279742956161, 0.14200221002101898, 0.15875400602817535, 0.1642628163099289, 0.17645733058452606, 0.13576723635196686, 0.14520733058452606, 0.14821213483810425, 0.16887019574642181, 0.14307892322540283, 0.1578024923801422, 0.1329376995563507, 0.16511417925357819, 0.16261017322540283, 0.16513922810554504, 0.16363681852817535, 0.15206831693649292, 0.1553986370563507, 0.16591547429561615, 0.16436298191547394, 0.18677383661270142, 0.1770833283662796, 0.16518931090831757, 0.1681690663099289, 0.1772085428237915, 0.16348658502101898, 0.18584735691547394, 0.1689453125, 0.18146534264087677, 0.19376002252101898, 0.20014522969722748, 0.19458633661270142, 0.14851261675357819, 0.17508013546466827, 0.1585286408662796, 0.15224358439445496, 0.15139223635196686, 0.16989684104919434, 0.15304487943649292, 0.1881510466337204, 0.17277644574642181, 0.18832632899284363, 0.1844451129436493, 0.17866085469722748, 0.16253505647182465, 0.19093048572540283, 0.16473858058452606, 0.19894331693649292, 0.1494140625, 0.18043869733810425, 0.18224158883094788, 0.18980368971824646, 0.13025841116905212, 0.16481369733810425, 0.1794871836900711, 0.19864283502101898, 0.18637320399284363, 0.16318610310554504, 0.18316806852817535, 0.1877003163099289, 0.1822916716337204, 0.1822165548801422, 0.19729067385196686, 0.18234175443649292, 0.1844451129436493, 0.1684945970773697, 0.18792568147182465, 0.18549679219722748, 0.19215744733810425, 0.1932341754436493, 0.20294971764087677, 0.20437701046466827, 0.1638621836900711, 0.19799178838729858, 0.17993789911270142, 0.21013621985912323, 0.21411758661270142, 0.17678286135196686, 0.19148136675357819, 0.19643931090831757, 0.18061397969722748, 0.18702423572540283, 0.21188902854919434, 0.18845152854919434, 0.19894331693649292, 0.21669672429561615, 0.1829427033662796, 0.19228266179561615, 0.19506210088729858, 0.19363482296466827, 0.19799178838729858, 0.20127204060554504, 0.20047076046466827, 0.20860877633094788, 0.2058543711900711, 0.17543068528175354, 0.18947817385196686, 0.2083333432674408, 0.1993439495563507, 0.20966045558452606, 0.2275390625, 0.19689002633094788, 0.19305889308452606, 0.19796675443649292, 0.21461838483810425, 0.20710636675357819, 0.18544672429561615, 0.2039012461900711, 0.22601161897182465, 0.18744991719722748, 0.21526943147182465, 0.19989483058452606, 0.2273387461900711, 0.1663411408662796, 0.17618189752101898, 0.20505309104919434, 0.20049579441547394, 0.20888422429561615, 0.1869741678237915, 0.2218048870563507, 0.2135416716337204, 0.20022036135196686, 0.2122395932674408, 0.27223557233810425, 0.19904346764087677, 0.20693109929561615, 0.22693809866905212, 0.22468449175357819, 0.2046274095773697, 0.22495993971824646, 0.20988582074642181, 0.22531050443649292, 0.21299079060554504]","[10.9375, 9.3125, 8.9375, 9.0625, 9.375, 9.3125, 9.4375, 9.1875, 9.375, 9.4375, 9.4375, 9.3125, 9.8125, 9.375, 9.5625, 9.4375, 9.4375, 9.4375, 9.4375, 9.3125, 9.375, 9.375, 9.4375, 9.3125, 9.4375, 9.5, 9.375, 9.3125, 9.4375, 9.3125, 9.5, 9.4375, 9.5, 9.5, 9.375, 9.5, 9.3125, 9.3125, 9.5625, 9.375, 9.375, 9.5, 9.5625, 9.5625, 9.5, 9.4375, 9.375, 9.625, 9.5, 9.6875, 9.75, 9.5625, 9.625, 9.6875, 9.75, 9.6875, 9.6875, 9.625, 9.5625, 9.5625, 9.625, 9.625, 9.5, 9.5, 9.625, 9.6875, 9.625, 9.625, 9.625, 9.75, 9.75, 9.625, 9.6875, 9.9375, 9.875, 9.875, 9.75, 10.125, 10.0, 9.75, 9.9375, 9.875, 9.75, 9.5625, 9.75, 9.5, 9.625, 9.75, 9.6875, 9.5625, 9.875, 9.8125, 9.8125, 9.6875, 9.5625, 9.625, 9.6875, 9.6875, 9.625, 9.6875, 9.5, 9.625, 9.625, 9.5, 9.5, 9.6875, 9.8125, 9.8125, 9.6875, 9.75, 9.6875, 9.6875, 9.75, 9.8125, 9.6875, 9.875, 9.6875, 9.875, 9.875, 9.9375, 9.6875, 9.875, 9.875, 9.75, 9.8125, 9.8125, 10.0625, 9.8125, 9.6875, 9.75, 9.875, 9.8125, 9.75, 9.875, 9.8125, 9.875, 9.875, 9.8125, 9.875, 9.875, 9.875, 9.75, 9.875, 9.875, 9.875, 9.9375, 9.8125, 9.9375, 9.9375, 9.9375, 9.875, 9.875, 9.8125, 9.9375, 9.9375, 10.0, 10.0625, 10.0625, 9.875, 9.9375, 9.9375, 9.75, 9.875, 10.0, 9.875, 9.875, 9.9375, 10.0, 9.9375, 9.75, 10.0, 10.0, 10.25, 10.25, 10.25, 10.25, 10.3125, 10.25, 10.5, 10.4375, 10.5, 10.375, 10.5625, 10.4375]","[56320.0, 11072.0, 7616.0, 8640.0, 11840.0, 11072.0, 12544.0, 9792.0, 11840.0, 12544.0, 12544.0, 11072.0, 18304.0, 11840.0, 14272.0, 12544.0, 12544.0, 12544.0, 12544.0, 11072.0, 11840.0, 11840.0, 12544.0, 11072.0, 12544.0, 13376.0, 11840.0, 11072.0, 12544.0, 11072.0, 13376.0, 12544.0, 13376.0, 13376.0, 11840.0, 13376.0, 11072.0, 11072.0, 14272.0, 11840.0, 11840.0, 13376.0, 14272.0, 14272.0, 13376.0, 12544.0, 11840.0, 15168.0, 13376.0, 16128.0, 17152.0, 14272.0, 15168.0, 16128.0, 17152.0, 16128.0, 16128.0, 15168.0, 14272.0, 14272.0, 15168.0, 15168.0, 13376.0, 13376.0, 15168.0, 16128.0, 15168.0, 15168.0, 15168.0, 17152.0, 17152.0, 15168.0, 16128.0, 20736.0, 19456.0, 19456.0, 17152.0, 24960.0, 22016.0, 17152.0, 20736.0, 19456.0, 17152.0, 14272.0, 17152.0, 13376.0, 15168.0, 17152.0, 16128.0, 14272.0, 19456.0, 18304.0, 18304.0, 16128.0, 14272.0, 15168.0, 16128.0, 16128.0, 15168.0, 16128.0, 13376.0, 15168.0, 15168.0, 13376.0, 13376.0, 16128.0, 18304.0, 18304.0, 16128.0, 17152.0, 16128.0, 16128.0, 17152.0, 18304.0, 16128.0, 19456.0, 16128.0, 19456.0, 19456.0, 20736.0, 16128.0, 19456.0, 19456.0, 17152.0, 18304.0, 18304.0, 23424.0, 18304.0, 16128.0, 17152.0, 19456.0, 18304.0, 17152.0, 19456.0, 18304.0, 19456.0, 19456.0, 18304.0, 19456.0, 19456.0, 19456.0, 17152.0, 19456.0, 19456.0, 19456.0, 20736.0, 18304.0, 20736.0, 20736.0, 20736.0, 19456.0, 19456.0, 18304.0, 20736.0, 20736.0, 22016.0, 23424.0, 23424.0, 19456.0, 20736.0, 20736.0, 17152.0, 19456.0, 22016.0, 19456.0, 19456.0, 20736.0, 22016.0, 20736.0, 17152.0, 22016.0, 22016.0, 28288.0, 28288.0, 28288.0, 28288.0, 30208.0, 28288.0, 36352.0, 34304.0, 36352.0, 32128.0, 38656.0, 34304.0]","[10.9375, 9.3125, 8.9375, 9.0625, 9.3125, 9.25, 9.3125, 9.125, 9.1875, 9.3125, 9.25, 9.25, 9.25, 9.375, 9.375, 9.25, 9.25, 9.25, 9.25, 9.25, 9.3125, 9.3125, 9.375, 9.3125, 9.375, 9.4375, 9.3125, 9.3125, 9.375, 9.25, 9.375, 9.375, 9.4375, 9.4375, 9.375, 9.5, 9.25, 9.3125, 9.4375, 9.3125, 9.3125, 9.375, 9.5, 9.4375, 9.4375, 9.375, 9.375, 9.4375, 9.375, 9.4375, 9.5, 9.375, 9.375, 9.375, 9.4375, 9.3125, 9.3125, 9.3125, 9.375, 9.25, 9.3125, 9.375, 9.25, 9.25, 9.3125, 9.375, 9.4375, 9.4375, 9.375, 9.375, 9.375, 9.3125, 9.3125, 9.5, 9.4375, 9.5625, 9.4375, 9.625, 9.5, 9.375, 9.5, 9.3125, 9.25, 9.25, 9.375, 9.1875, 9.25, 9.375, 9.1875, 9.25, 9.5, 9.4375, 9.5, 9.375, 9.3125, 9.25, 9.375, 9.3125, 9.3125, 9.375, 9.25, 9.25, 9.375, 9.0625, 9.1875, 9.3125, 9.3125, 9.375, 9.3125, 9.3125, 9.375, 9.375, 9.4375, 9.625, 9.375, 9.625, 9.375, 9.5625, 9.625, 9.375, 9.3125, 9.5625, 9.5625, 9.5, 9.5, 9.4375, 9.5625, 9.375, 9.4375, 9.5625, 9.75, 9.4375, 9.5, 9.375, 9.5, 9.5, 9.625, 9.5625, 9.5, 9.5, 9.5625, 9.375, 9.625, 9.625, 9.5625, 9.625, 9.625, 9.6875, 9.625, 9.625, 9.5625, 9.625, 9.6875, 9.75, 9.5625, 9.6875, 9.75, 9.75, 9.5625, 9.5625, 9.4375, 9.1875, 9.4375, 9.4375, 9.375, 9.375, 9.375, 9.4375, 9.3125, 9.0625, 9.5, 9.4375, 9.5625, 9.375, 9.3125, 9.375, 9.375, 9.25, 9.5, 9.625, 9.5, 9.4375, 9.5625, 9.625]","[56320.0, 11072.0, 7616.0, 8640.0, 11072.0, 10432.0, 11072.0, 9216.0, 9792.0, 11072.0, 10432.0, 10432.0, 10432.0, 11840.0, 11840.0, 10432.0, 10432.0, 10432.0, 10432.0, 10432.0, 11072.0, 11072.0, 11840.0, 11072.0, 11840.0, 12544.0, 11072.0, 11072.0, 11840.0, 10432.0, 11840.0, 11840.0, 12544.0, 12544.0, 11840.0, 13376.0, 10432.0, 11072.0, 12544.0, 11072.0, 11072.0, 11840.0, 13376.0, 12544.0, 12544.0, 11840.0, 11840.0, 12544.0, 11840.0, 12544.0, 13376.0, 11840.0, 11840.0, 11840.0, 12544.0, 11072.0, 11072.0, 11072.0, 11840.0, 10432.0, 11072.0, 11840.0, 10432.0, 10432.0, 11072.0, 11840.0, 12544.0, 12544.0, 11840.0, 11840.0, 11840.0, 11072.0, 11072.0, 13376.0, 12544.0, 14272.0, 12544.0, 15168.0, 13376.0, 11840.0, 13376.0, 11072.0, 10432.0, 10432.0, 11840.0, 9792.0, 10432.0, 11840.0, 9792.0, 10432.0, 13376.0, 12544.0, 13376.0, 11840.0, 11072.0, 10432.0, 11840.0, 11072.0, 11072.0, 11840.0, 10432.0, 10432.0, 11840.0, 8640.0, 9792.0, 11072.0, 11072.0, 11840.0, 11072.0, 11072.0, 11840.0, 11840.0, 12544.0, 15168.0, 11840.0, 15168.0, 11840.0, 14272.0, 15168.0, 11840.0, 11072.0, 14272.0, 14272.0, 13376.0, 13376.0, 12544.0, 14272.0, 11840.0, 12544.0, 14272.0, 17152.0, 12544.0, 13376.0, 11840.0, 13376.0, 13376.0, 15168.0, 14272.0, 13376.0, 13376.0, 14272.0, 11840.0, 15168.0, 15168.0, 14272.0, 15168.0, 15168.0, 16128.0, 15168.0, 15168.0, 14272.0, 15168.0, 16128.0, 17152.0, 14272.0, 16128.0, 17152.0, 17152.0, 14272.0, 14272.0, 12544.0, 9792.0, 12544.0, 12544.0, 11840.0, 11840.0, 11840.0, 12544.0, 11072.0, 8640.0, 13376.0, 12544.0, 14272.0, 11840.0, 11072.0, 11840.0, 11840.0, 10432.0, 13376.0, 15168.0, 13376.0, 12544.0, 14272.0, 15168.0]","[10.9375, 8.9375, 8.6875, 8.875, 9.125, 9.0625, 9.0625, 9.0, 9.125, 9.25, 9.3125, 9.125, 9.75, 9.25, 9.5625, 9.4375, 9.25, 9.125, 9.1875, 9.0625, 9.125, 9.125, 9.1875, 9.125, 9.125, 9.3125, 9.1875, 9.0625, 9.1875, 9.25, 9.375, 9.1875, 9.1875, 9.1875, 9.25, 9.375, 9.125, 9.25, 9.3125, 9.125, 9.125, 9.3125, 9.375, 9.375, 9.375, 9.375, 9.1875, 9.375, 9.3125, 9.625, 9.75, 9.5, 9.4375, 9.4375, 9.625, 9.6875, 9.5, 9.3125, 9.4375, 9.5625, 9.625, 9.5, 9.3125, 9.3125, 9.75, 9.5625, 10.125, 10.1875, 10.0, 10.3125, 10.375, 10.0625, 10.0625, 10.5625, 10.5625, 10.875, 10.4375, 11.5, 11.6875, 10.375, 10.9375, 10.375, 10.375, 10.0625, 10.125, 9.5, 9.9375, 10.5625, 10.3125, 10.3125, 10.875, 11.4375, 11.0625, 10.75, 10.0, 9.8125, 10.375, 10.125, 9.9375, 10.125, 9.875, 9.6875, 9.6875, 9.375, 9.6875, 10.0625, 10.8125, 10.75, 10.375, 10.75, 10.4375, 10.125, 10.25, 11.0, 10.5, 11.25, 10.1875, 10.625, 10.9375, 10.5, 10.0, 10.4375, 10.25, 10.5, 10.25, 10.1875, 10.5, 9.9375, 10.0, 10.4375, 10.5, 10.0625, 10.125, 9.75, 10.0, 9.875, 10.3125, 10.3125, 10.0625, 10.125, 10.25, 9.75, 10.1875, 10.25, 10.0625, 9.875, 10.0, 10.0625, 10.1875, 10.0, 10.0625, 9.8125, 9.875, 9.875, 9.5, 9.6875, 9.6875, 9.8125, 9.4375, 9.4375, 9.375, 9.0625, 9.3125, 9.375, 9.3125, 9.375, 9.3125, 9.375, 9.3125, 9.125, 9.5, 9.5, 9.5625, 9.5625, 9.625, 9.75, 9.8125, 9.8125, 10.125, 10.1875, 10.1875, 10.125, 10.3125, 10.5]","[56320.0, 7616.0, 5952.0, 7168.0, 9216.0, 8640.0, 8640.0, 8128.0, 9216.0, 10432.0, 11072.0, 9216.0, 17152.0, 10432.0, 14272.0, 12544.0, 10432.0, 9216.0, 9792.0, 8640.0, 9216.0, 9216.0, 9792.0, 9216.0, 9216.0, 11072.0, 9792.0, 8640.0, 9792.0, 10432.0, 11840.0, 9792.0, 9792.0, 9792.0, 10432.0, 11840.0, 9216.0, 10432.0, 11072.0, 9216.0, 9216.0, 11072.0, 11840.0, 11840.0, 11840.0, 11840.0, 9792.0, 11840.0, 11072.0, 15168.0, 17152.0, 13376.0, 12544.0, 12544.0, 15168.0, 16128.0, 13376.0, 11072.0, 12544.0, 14272.0, 15168.0, 13376.0, 11072.0, 11072.0, 17152.0, 14272.0, 24960.0, 26624.0, 22016.0, 30208.0, 32128.0, 23424.0, 23424.0, 38656.0, 38656.0, 52992.0, 34304.0, 98816.0, 119296.0, 32128.0, 56320.0, 32128.0, 32128.0, 23424.0, 24960.0, 13376.0, 20736.0, 38656.0, 30208.0, 30208.0, 52992.0, 92672.0, 63744.0, 46592.0, 22016.0, 18304.0, 32128.0, 24960.0, 20736.0, 24960.0, 19456.0, 16128.0, 16128.0, 11840.0, 16128.0, 23424.0, 49664.0, 46592.0, 32128.0, 46592.0, 34304.0, 24960.0, 28288.0, 59904.0, 36352.0, 76800.0, 26624.0, 41216.0, 56320.0, 36352.0, 22016.0, 34304.0, 28288.0, 36352.0, 28288.0, 26624.0, 36352.0, 20736.0, 22016.0, 34304.0, 36352.0, 23424.0, 24960.0, 17152.0, 22016.0, 19456.0, 30208.0, 30208.0, 23424.0, 24960.0, 28288.0, 17152.0, 26624.0, 28288.0, 23424.0, 19456.0, 22016.0, 23424.0, 26624.0, 22016.0, 23424.0, 18304.0, 19456.0, 19456.0, 13376.0, 16128.0, 16128.0, 18304.0, 12544.0, 12544.0, 11840.0, 8640.0, 11072.0, 11840.0, 11072.0, 11840.0, 11072.0, 11840.0, 11072.0, 9216.0, 13376.0, 13376.0, 14272.0, 14272.0, 15168.0, 17152.0, 18304.0, 18304.0, 24960.0, 26624.0, 26624.0, 24960.0, 30208.0, 36352.0]","[0.0, 0.0009919814765453339, 0.0018193847499787807, 0.0013643692946061492, 0.0019519894849509, 0.0010366562055423856, 0.0011217283317819238, 0.0014066443545743823, 0.0007897252216935158, 0.0008710079127922654, 0.0012100476305931807, 0.0005783690139651299, 0.00024730031145736575, 0.0013563501415774226, 0.0007864563958719373, 0.0010256831301376224, 0.001109467470087111, 0.0015557194128632545, 0.0010755801340565085, 0.0014020617818459868, 0.00168585532810539, 0.0013219863176345825, 0.0017770797712728381, 0.0018539880402386189, 0.0017796539468690753, 0.001654328079894185, 0.0019530438585206866, 0.0021252657752484083, 0.0019074473530054092, 0.001476256875321269, 0.0015738900983706117, 0.0013652724446728826, 0.0018251201836392283, 0.001563014229759574, 0.0016862020129337907, 0.0021568709053099155, 0.001984455157071352, 0.001576763461343944, 0.001034725341014564, 0.0013189349556341767, 0.0015325353015214205, 0.0007849293760955334, 0.001239823061041534, 0.0014022353570908308, 0.0019407854415476322, 0.0017810545396059752, 0.0019451226107776165, 0.0007868146640248597, 0.0007028278196230531, 0.0004961547674611211, 0.0006238562637008727, 0.0012779815588146448, 0.0013707734178751707, 0.0005803349195048213, 0.0010735372779890895, 0.0014659686712548137, 0.0009113127016462386, 0.0013218224048614502, 0.0007816356373950839, 0.002181069925427437, 0.0007469809497706592, 0.0010332285892218351, 0.0008695292635820806, 0.0006976935546845198, 0.0009468527277931571, 0.0007467020186595619, 0.000990712083876133, 0.0006149557302705944, 0.000910596048925072, 0.00045516612590290606, 0.00024808765738271177, 0.0004935834440402687, 0.0009012330556288362, 0.00041483447421342134, 0.0004568485892377794, 0.0002497918321751058, 0.00028971111169084907, 0.0002907580346800387, 0.0003729178861249238, 0.0006571921403519809, 0.00037047709338366985, 0.0008235536515712738, 0.0006656404584646225, 0.0007898565963841975, 0.0006659729406237602, 0.001493713934905827, 0.0016121697844937444, 0.0007021601777523756, 0.0007482540677301586, 0.000704021193087101, 0.0007897908799350262, 0.0009477892308495939, 0.0009527360089123249, 0.0008698534220457077, 0.0009443646413274109, 0.0011219147127121687, 0.0009880202123895288, 0.0009497460559941828, 0.0025311203207820654, 0.001108010532334447, 0.0014032191829755902, 0.001754386001266539, 0.0018128631636500359, 0.0019558884669095278, 0.0019442376215010881, 0.0016869651153683662, 0.001445086789317429, 0.0012765080900862813, 0.0021949803922325373, 0.0012810976477339864, 0.0017385545652359724, 0.00202170223928988, 0.002025630557909608, 0.0012906448682770133, 0.0016829489031806588, 0.0014829460997134447, 0.0012399255065247416, 0.0016086454270407557, 0.0018215690506622195, 0.002066884422674775, 0.002390471054241061, 0.002308707218617201, 0.0019334403332322836, 0.0019053141586482525, 0.00207065069116652, 0.00244336761534214, 0.0018270148430019617, 0.00292699015699327, 0.00191252282820642, 0.0018994136480614543, 0.0024769846349954605, 0.002950833411887288, 0.0031757813412696123, 0.003119228407740593, 0.0034266370348632336, 0.0031010957900434732, 0.002482929965481162, 0.0027649388648569584, 0.0027804290875792503, 0.0030530570074915886, 0.002615736098960042, 0.003925417084246874, 0.002486016135662794, 0.0038618054240942, 0.0038152108900249004, 0.003135313745588064, 0.0029631485231220722, 0.0029997946694493294, 0.0028431331738829613, 0.0020645800977945328, 0.002973609371110797, 0.0032290115486830473, 0.0030309322755783796, 0.0038163186982274055, 0.004469133913516998, 0.0029144943691790104, 0.00469542108476162, 0.0034862004686146975, 0.006274769082665443, 0.004557696171104908, 0.004461150616407394, 0.003969402518123388, 0.002928076544776559, 0.003095080843195319, 0.00427066907286644, 0.0046690357849001884, 0.003987503238022327, 0.006139772478491068, 0.003964812494814396, 0.005144588183611631, 0.003499382408335805, 0.0042722634971141815, 0.0037914691492915154, 0.0034145324025303125, 0.004229805897921324, 0.003432872937992215, 0.005313015077263117, 0.004753441084176302, 0.004222902934998274, 0.0050956993363797665, 0.005997931584715843, 0.0063025206327438354, 0.006117724813520908, 0.005100348498672247]","[0.0, 0.0009601955534890294, 0.0017454545013606548, 0.0012490922817960382, 0.001393606886267662, 0.001541638863272965, 0.0013085959944874048, 0.0013382596662268043, 0.0018892602529376745, 0.0017431220039725304, 0.0015425811288878322, 0.0013380650198087096, 0.0013374426634982228, 0.0016003259224817157, 0.0016598718939349055, 0.0014832911547273397, 0.001743983244523406, 0.0015715034678578377, 0.00133899983484298, 0.0013377537252381444, 0.0010477909818291664, 0.0018594381399452686, 0.0018002322176471353, 0.0020323432981967926, 0.001774029340595007, 0.0017729465616866946, 0.002297647064551711, 0.002180105773732066, 0.0019491476705297828, 0.0014832911547273397, 0.0013644940918311477, 0.001715215970762074, 0.0018023779848590493, 0.0015710461884737015, 0.001569904270581901, 0.0019471083069220185, 0.0018025876488536596, 0.0014522640267387033, 0.0012499273288995028, 0.002092110924422741, 0.0020943626295775175, 0.0013076073955744505, 0.0010177969234064221, 0.00122085923794657, 0.0019466558005660772, 0.00206575496122241, 0.002530320081859827, 0.001133259735070169, 0.0015709090512245893, 0.0011931784683838487, 0.001716363593004644, 0.0014836795162409544, 0.0018310226732864976, 0.0016568322898820043, 0.0018041087314486504, 0.002034824574366212, 0.001570680644363165, 0.0014242115430533886, 0.0014807501574978232, 0.0028815087862312794, 0.0017156150424852967, 0.0020950939506292343, 0.0012509454973042011, 0.001540563302114606, 0.0011339846532791853, 0.0015713204629719257, 0.0018045812612399459, 0.00139611994381994, 0.0012783266138285398, 0.0014550533378496766, 0.001251783105544746, 0.0014249570667743683, 0.0013369371881708503, 0.001309395651333034, 0.0012208947446197271, 0.0010165257845073938, 0.0013664776924997568, 0.0007856373558752239, 0.0006982833729125559, 0.0017738745082169771, 0.0010191008914262056, 0.0017441860400140285, 0.001279218471609056, 0.00121976004447788, 0.0013677900424227118, 0.0017157146940007806, 0.0012499999720603228, 0.0012214273447170854, 0.001193803851492703, 0.00142562051769346, 0.0014545454178005457, 0.001104522729292512, 0.0013078353367745876, 0.001047364086844027, 0.00165943696629256, 0.0014252887340262532, 0.0014237978029996157, 0.001162723172456026, 0.0018633902072906494, 0.0012195829767733812, 0.0018605191726237535, 0.0016895828302949667, 0.0015981403412297368, 0.0015985119389370084, 0.0013951055007055402, 0.0014538688119500875, 0.0015714119654148817, 0.0010758315911516547, 0.0016294227680191398, 0.0012218892807140946, 0.0016862916527315974, 0.0016863406635820866, 0.002065214328467846, 0.0013965667458251119, 0.0016861445037648082, 0.0012501089368015528, 0.0016551483422517776, 0.0013667955063283443, 0.0016591472085565329, 0.0020629940554499626, 0.002239934867247939, 0.0017132237553596497, 0.0021199360489845276, 0.0016577477799728513, 0.002005697460845113, 0.0019491476705297828, 0.0015691288281232119, 0.0024424996227025986, 0.001889974344521761, 0.0015995812136679888, 0.0014848025748506188, 0.0020934492349624634, 0.0025015270803123713, 0.002153479028493166, 0.002642813604325056, 0.0018336874200031161, 0.002704353304579854, 0.002588488394394517, 0.002788185141980648, 0.0021527898497879505, 0.002036185935139656, 0.0029329771641641855, 0.0020939363166689873, 0.006222196388989687, 0.003024574602022767, 0.002759702503681183, 0.0026430438738316298, 0.002531129866838455, 0.002470068633556366, 0.0028229679446667433, 0.002267375821247697, 0.0030256304889917374, 0.003052591811865568, 0.0022407821379601955, 0.003256381954997778, 0.002880670363083482, 0.0029366440139710903, 0.002613999415189028, 0.0037849012296646833, 0.004217322915792465, 0.004272138234227896, 0.003551260568201542, 0.003343995427712798, 0.0031384401954710484, 0.003948552533984184, 0.005002326797693968, 0.004504112061113119, 0.005120595917105675, 0.003986034542322159, 0.004969918634742498, 0.0033165565691888332, 0.0037198488134890795, 0.0038931986782699823, 0.004074742551892996, 0.004533960949629545, 0.004097169730812311, 0.004039053805172443, 0.004447544924914837, 0.0035139687824994326, 0.0035171350464224815, 0.004650486633181572, 0.00488301133736968, 0.00393253518268466, 0.003926930017769337]","[0.0, 0.0, 0.0, 0.00010016026499215513, 6.677350756945089e-05, 0.00010016026499215513, 0.0, 0.0, 0.0002337072801310569, 0.0, 0.0, 3.338675378472544e-05, 3.338675378472544e-05, 6.677350756945089e-05, 0.0, 0.00036725428071804345, 6.677350756945089e-05, 0.0001669337652856484, 3.338675378472544e-05, 3.338675378472544e-05, 6.677350756945089e-05, 3.338675378472544e-05, 0.0, 0.0003004807804245502, 0.00010016026499215513, 0.00013354701513890177, 3.338675378472544e-05, 0.0002337072801310569, 6.677350756945089e-05, 0.00013354701513890177, 0.00010016026499215513, 6.677350756945089e-05, 3.338675378472544e-05, 0.0, 0.00020032052998431027, 0.0002337072801310569, 0.0001669337652856484, 0.00010016026499215513, 6.677350756945089e-05, 0.00020032052998431027, 0.0005008013104088604, 3.338675378472544e-05, 0.00013354701513890177, 3.338675378472544e-05, 6.677350756945089e-05, 0.00020032052998431027, 0.0004340278101153672, 0.00020032052998431027, 6.677350756945089e-05, 0.00020032052998431027, 6.677350756945089e-05, 0.00010016026499215513, 0.0003338675305712968, 0.0003338675305712968, 0.00010016026499215513, 0.0007011218112893403, 0.00010016026499215513, 0.00020032052998431027, 0.00013354701513890177, 0.0005008013104088604, 0.0005341880605556071, 0.0003004807804245502, 0.00036725428071804345, 0.00020032052998431027, 0.00026709403027780354, 0.0002337072801310569, 0.0006009615608491004, 0.0002337072801310569, 0.00040064105996862054, 0.0005008013104088604, 0.00026709403027780354, 0.00040064105996862054, 0.0005675748107023537, 0.0004340278101153672, 0.0004340278101153672, 0.0004340278101153672, 0.0006677350611425936, 0.00020032052998431027, 0.0004674145602621138, 0.0010016026208177209, 0.0003004807804245502, 0.0009348291205242276, 0.0004340278101153672, 0.0009348291205242276, 0.0007011218112893403, 0.0008680556202307343, 0.0005008013104088604, 0.0004674145602621138, 0.0008012821199372411, 0.0005675748107023537, 0.0007678953115828335, 0.0009682158706709743, 0.000901442370377481, 0.0005675748107023537, 0.001168536371551454, 0.001268696621991694, 0.0007345085614360869, 0.0007011218112893403, 0.0013688568724319339, 0.0012019231216982007, 0.001168536371551454, 0.0010016026208177209, 0.001168536371551454, 0.0011351496214047074, 0.0013354701222851872, 0.001268696621991694, 0.001535790623165667, 0.0011017628712579608, 0.0014690171228721738, 0.0012353098718449473, 0.0017361112404614687, 0.0016359509900212288, 0.0014690171228721738, 0.0014022436225786805, 0.0017361112404614687, 0.0013688568724319339, 0.0013688568724319339, 0.0018696582410484552, 0.0016693377401679754, 0.0020032052416354418, 0.0025040064938366413, 0.0019030449911952019, 0.0019364317413419485, 0.001802884740754962, 0.0029380342457443476, 0.001969818491488695, 0.0021033654920756817, 0.001969818491488695, 0.0028378739953041077, 0.0020365919917821884, 0.0020032052416354418, 0.002270299242809415, 0.0030381944961845875, 0.0028378739953041077, 0.0031049679964780807, 0.0026709402445703745, 0.0032051284797489643, 0.002971420995891094, 0.0031049679964780807, 0.0024038462433964014, 0.0027711004950106144, 0.003238515229895711, 0.003071581246331334, 0.007745726965367794, 0.0040397970005869865, 0.0022035257425159216, 0.002904647495597601, 0.0032051284797489643, 0.0029380342457443476, 0.0037393164820969105, 0.003672542981803417, 0.0035389959812164307, 0.0038394767325371504, 0.003071581246331334, 0.0035723827313631773, 0.003872863482683897, 0.0038060899823904037, 0.003973023500293493, 0.0047743059694767, 0.004073183983564377, 0.003605769481509924, 0.003605769481509924, 0.003338675480335951, 0.0034388357307761908, 0.003672542981803417, 0.005041399970650673, 0.00390625, 0.005241720471531153, 0.0035723827313631773, 0.004640758968889713, 0.0038060899823904037, 0.004607371985912323, 0.0037393164820969105, 0.0044404384680092335, 0.003305288730189204, 0.003505609231069684, 0.004674145486205816, 0.00454059848561883, 0.003071581246331334, 0.0040397970005869865, 0.004841079469770193, 0.004407051485031843, 0.005241720471531153, 0.004507211968302727]","[0.0, 0.01759623922407627, 0.02666328102350235, 0.023303067311644554, 0.025413040071725845, 0.021681416779756546, 0.022690029814839363, 0.027465905994176865, 0.02513069100677967, 0.022368254140019417, 0.02160300500690937, 0.019771138206124306, 0.010526987724006176, 0.026848647743463516, 0.01641630195081234, 0.01831384003162384, 0.023461537435650826, 0.024371372535824776, 0.021569497883319855, 0.025691701099276543, 0.022092724218964577, 0.027908455580472946, 0.030624564737081528, 0.02783452533185482, 0.03074679896235466, 0.025893254205584526, 0.03257513791322708, 0.028169898316264153, 0.02585335075855255, 0.023215433582663536, 0.02570922113955021, 0.027846496552228928, 0.02615617960691452, 0.029057860374450684, 0.027911143377423286, 0.028306057676672935, 0.025844551622867584, 0.023617073893547058, 0.02199682965874672, 0.025456169620156288, 0.024251248687505722, 0.02015257440507412, 0.0226189736276865, 0.019376633688807487, 0.026528405025601387, 0.02532767504453659, 0.027388574555516243, 0.018051685765385628, 0.024447549134492874, 0.010158730670809746, 0.014283916912972927, 0.013967727310955524, 0.018471818417310715, 0.020174549892544746, 0.01946936547756195, 0.014382665976881981, 0.015068060718476772, 0.018884722143411636, 0.01439723465591669, 0.013750320300459862, 0.010606729425489902, 0.01740787923336029, 0.017928412184119225, 0.015863841399550438, 0.011377436108887196, 0.013329122215509415, 0.00515562342479825, 0.0039886776357889175, 0.006402129773050547, 0.003107362426817417, 0.0022855692077428102, 0.004416282754391432, 0.002061191713437438, 0.0015161086339503527, 0.002963803708553314, 0.0013822568580508232, 0.0026626093313097954, 0.0005674295825883746, 0.00044298189459368587, 0.0018601668998599052, 0.0014703063061460853, 0.0017251294339075685, 0.0010063525987789035, 0.002770606428384781, 0.0035824270453304052, 0.010925165377557278, 0.004890441428869963, 0.0017806041287258267, 0.0015113350236788392, 0.002090062713250518, 0.0020782165229320526, 0.0005105622694827616, 0.0005064894212409854, 0.0009497277205809951, 0.003209036774933338, 0.005419029854238033, 0.0020453818142414093, 0.0020993701182305813, 0.004736044444143772, 0.002569373231381178, 0.004838915076106787, 0.007126782089471817, 0.007851899601519108, 0.00792153924703598, 0.005392716731876135, 0.004030194599181414, 0.0008271824917756021, 0.0004472557920962572, 0.003039898816496134, 0.0006354047218337655, 0.0006337938830256462, 0.0036308043636381626, 0.0031754097435623407, 0.00031412954558618367, 0.0017978681717067957, 0.0001915708853630349, 0.00311288982629776, 0.0005098138935863972, 0.00031683669658377767, 0.000698634481523186, 0.0017227077623829246, 0.0006377550889737904, 0.0026876558549702168, 0.0003799151163548231, 0.002596744569018483, 0.0027234149165451527, 0.0006307953735813498, 0.004273231606930494, 0.002455300884321332, 0.000890698516741395, 0.000509132572915405, 0.002141732256859541, 0.0017208412755280733, 0.007513968273997307, 0.0048364512622356415, 0.008761349134147167, 0.0005706676747649908, 0.0007004585349932313, 0.0027779529336839914, 0.0019747738260775805, 0.0010094000026583672, 0.007687338162213564, 0.0037972277496010065, 0.0008830579463392496, 0.001643281546421349, 0.004778287373483181, 0.0006885758484713733, 0.0008973784279078245, 0.0005106274620629847, 0.0009543198393657804, 0.0007632131455466151, 0.0008871990139596164, 0.0009463125024922192, 0.007454671431332827, 0.013067400082945824, 0.005906902253627777, 0.013862635008990765, 0.00675462419167161, 0.01673879846930504, 0.01778368279337883, 0.015514721162617207, 0.02431591786444187, 0.016063233837485313, 0.014009170234203339, 0.018396763131022453, 0.009724164381623268, 0.011467007920145988, 0.009828951209783554, 0.01189340464770794, 0.011052864603698254, 0.01227150671184063, 0.0050546531565487385, 0.003509667469188571, 0.0024495949037373066, 0.003336541587486863, 0.002030714647844434, 0.003257537027820945, 0.005145144183188677, 0.005005702842026949, 0.0056969234719872475, 0.009199922904372215, 0.007215836551040411, 0.0074949185363948345, 0.00575221236795187]","[0.0, 0.014367816038429737, 0.02301744371652603, 0.02032298967242241, 0.02403058484196663, 0.022314198315143585, 0.0203676987439394, 0.02318892627954483, 0.025673476979136467, 0.027017224580049515, 0.021154535934329033, 0.02374955080449581, 0.02255503460764885, 0.027478449046611786, 0.020907791331410408, 0.021790022030472755, 0.027295734733343124, 0.02439899556338787, 0.025438910350203514, 0.02450450509786606, 0.021692363545298576, 0.024832336232066154, 0.02838427945971489, 0.030402330681681633, 0.02882363460958004, 0.026039782911539078, 0.031514495611190796, 0.0260209608823061, 0.025710176676511765, 0.0221501886844635, 0.0269531961530447, 0.026724448427557945, 0.028174100443720818, 0.02929547242820263, 0.026539085432887077, 0.02859211154282093, 0.02310052327811718, 0.02887234464287758, 0.021864835172891617, 0.022640826180577278, 0.024649154394865036, 0.020644694566726685, 0.024152847006917, 0.021684134379029274, 0.023196810856461525, 0.027308659628033638, 0.023410767316818237, 0.021550163626670837, 0.02661391906440258, 0.02260495163500309, 0.02481568232178688, 0.022473931312561035, 0.02658708579838276, 0.023495391011238098, 0.02746858075261116, 0.029087623581290245, 0.022498199716210365, 0.02820466458797455, 0.020931925624608994, 0.02527334727346897, 0.021637216210365295, 0.023877916857600212, 0.024811219424009323, 0.028917405754327774, 0.020021645352244377, 0.02495511621236801, 0.023839397355914116, 0.0185418538749218, 0.021936185657978058, 0.021891260519623756, 0.020769920200109482, 0.019643178209662437, 0.02423584647476673, 0.01795654557645321, 0.016621500253677368, 0.01616712100803852, 0.018047284334897995, 0.01687915250658989, 0.011139058507978916, 0.02235039696097374, 0.019492132589221, 0.022218206897377968, 0.024368232116103172, 0.016172995790839195, 0.022066738456487656, 0.01838500238955021, 0.017160404473543167, 0.014414414763450623, 0.019313305616378784, 0.01814914681017399, 0.018162202090024948, 0.010845987126231194, 0.014833574183285236, 0.014378145337104797, 0.01378199364989996, 0.014576210640370846, 0.017207028344273567, 0.013191181235015392, 0.023971376940608025, 0.016369588673114777, 0.014267653226852417, 0.0164051353931427, 0.013765622861683369, 0.01175619475543499, 0.01066907774657011, 0.01045987382531166, 0.01184493862092495, 0.01064213551580906, 0.009877873584628105, 0.01276289764791727, 0.010286951437592506, 0.009924215264618397, 0.00719812884926796, 0.005928853992372751, 0.007222823798656464, 0.004152373876422644, 0.005638413596898317, 0.0072085061110556126, 0.0055545601062476635, 0.008514492772519588, 0.010431654751300812, 0.007639141287654638, 0.005635338835418224, 0.0034221902024000883, 0.007228044793009758, 0.006112908944487572, 0.007062658667564392, 0.009197475388646126, 0.0059523810632526875, 0.004502881783992052, 0.0026843235827982426, 0.003066931152716279, 0.006298362743109465, 0.009869011119008064, 0.00908595323562622, 0.007169743999838829, 0.0032449972350150347, 0.0046821534633636475, 0.004904631990939379, 0.0053937435150146484, 0.005937387701123953, 0.008727272972464561, 0.009007385931909084, 0.006855493411421776, 0.006125022657215595, 0.004172713961452246, 0.0025426808279007673, 0.003055355977267027, 0.0032585083972662687, 0.00556053826585412, 0.004155375063419342, 0.0032356642186641693, 0.0016248420579358935, 0.005562533624470234, 0.010645976290106773, 0.0028730472549796104, 0.0066750855185091496, 0.003632401116192341, 0.009303989820182323, 0.010803024284541607, 0.010313008911907673, 0.024543175473809242, 0.01568698137998581, 0.017016654834151268, 0.017112689092755318, 0.01657060533761978, 0.01104472205042839, 0.006828391458839178, 0.018145885318517685, 0.020256828516721725, 0.023009167984128, 0.010857763700187206, 0.013050571084022522, 0.015238436870276928, 0.014107433147728443, 0.009054690599441528, 0.008511409163475037, 0.016621500253677368, 0.015812432393431664, 0.011205494403839111, 0.010305550880730152, 0.011209546588361263, 0.013376137241721153, 0.011874775402247906]","[0.0, 0.009515224024653435, 0.014022435992956161, 0.014423076994717121, 0.012019230984151363, 0.007512019481509924, 0.005709134507924318, 0.01171875, 0.0026041667442768812, 0.0022035257425159216, 0.0016025641234591603, 0.0018028846243396401, 0.0008012820617295802, 0.006710737477988005, 0.0020032052416354418, 0.00190304487477988, 0.0020032052416354418, 0.005709134507924318, 0.0023036859929561615, 0.014723557978868484, 0.010316506959497929, 0.013822115957736969, 0.018930288031697273, 0.01692708395421505, 0.013521634973585606, 0.011618589982390404, 0.018329327926039696, 0.016025641933083534, 0.011818910017609596, 0.009815705008804798, 0.008814102970063686, 0.012920673005282879, 0.015524839982390404, 0.016225961968302727, 0.01522435899823904, 0.014623397961258888, 0.012720352970063686, 0.014723557978868484, 0.007712339982390404, 0.013221153989434242, 0.01211939100176096, 0.008313301019370556, 0.009214743971824646, 0.007912660017609596, 0.016626602038741112, 0.016225961968302727, 0.015324519015848637, 0.0026041667442768812, 0.006710737477988005, 0.002904647495597601, 0.0055088140070438385, 0.006610576994717121, 0.0045072115026414394, 0.00410657050088048, 0.007512019481509924, 0.004807692486792803, 0.002704326994717121, 0.0033052884973585606, 0.0031049679964780807, 0.004907852504402399, 0.0017027243738994002, 0.006310096010565758, 0.008413461968302727, 0.0021033654920756817, 0.005809294991195202, 0.0052083334885537624, 0.006610576994717121, 0.0033052884973585606, 0.004807692486792803, 0.0025040064938366413, 0.00190304487477988, 0.00430689100176096, 0.0016025641234591603, 0.0011017628712579608, 0.0021033654920756817, 0.0014022436225786805, 0.002704326994717121, 0.0023036859929561615, 0.0008012820617295802, 0.0018028846243396401, 0.0012019231216982007, 0.0022035257425159216, 0.0010016026208177209, 0.0026041667442768812, 0.0017027243738994002, 0.006109775509685278, 0.005809294991195202, 0.0021033654920756817, 0.0018028846243396401, 0.0040064104832708836, 0.0012019231216982007, 0.00190304487477988, 0.0011017628712579608, 0.004407051485031843, 0.006610576994717121, 0.0040064104832708836, 0.007912660017609596, 0.0045072115026414394, 0.009515224024653435, 0.003004807746037841, 0.005608974490314722, 0.006109775509685278, 0.006810897495597601, 0.0033052884973585606, 0.005308493506163359, 0.006009615492075682, 0.00741185899823904, 0.00410657050088048, 0.004407051485031843, 0.002804487245157361, 0.0045072115026414394, 0.004607371985912323, 0.00390625, 0.0069110579788684845, 0.0069110579788684845, 0.0011017628712579608, 0.004407051485031843, 0.00761217949911952, 0.0006009615608491004, 0.0011017628712579608, 0.0069110579788684845, 0.008313301019370556, 0.010616987012326717, 0.0036057692486792803, 0.00861378200352192, 0.005809294991195202, 0.00390625, 0.0069110579788684845, 0.005608974490314722, 0.00430689100176096, 0.0022035257425159216, 0.008313301019370556, 0.0072115384973585606, 0.007712339982390404, 0.004807692486792803, 0.007512019481509924, 0.009815705008804798, 0.0022035257425159216, 0.006009615492075682, 0.0062099359929561615, 0.00430689100176096, 0.006109775509685278, 0.005709134507924318, 0.0012019231216982007, 0.005608974490314722, 0.009515224024653435, 0.002804487245157361, 0.0036057692486792803, 0.0007011218112893403, 0.0033052884973585606, 0.003004807746037841, 0.014923878014087677, 0.00430689100176096, 0.016225961968302727, 0.012920673005282879, 0.012319711968302727, 0.012820512987673283, 0.011217948980629444, 0.01171875, 0.014122596010565758, 0.009515224024653435, 0.01131810899823904, 0.0045072115026414394, 0.008814102970063686, 0.010817307978868484, 0.00390625, 0.01131810899823904, 0.0014022436225786805, 0.0034054487477988005, 0.002904647495597601, 0.0026041667442768812, 0.0006009615608491004, 0.0015024038730189204, 0.0005008013104088604, 0.0013020833721384406, 0.0005008013104088604, 0.00020032051543239504, 0.0003004807804245502, 0.0, 0.00020032051543239504, 0.0, 0.0, 0.00010016025771619752, 0.00010016025771619752]",[],[],[],[],[],[],[],[],[],"[1.6455423973282028, 1.461136220482619, 0.3986346686860915, 0.38839520843666364, 0.47416857202766144, 0.3604744586780103, 0.37406188441049026, 0.5042571019494251, 0.39788394974879887, 0.3787543200219046, 0.43448670936819694, 0.3664694507824984, 0.3348545393438215, 0.31524504497777456, 0.3789482886059208, 0.3644350556435712, 0.3187021100655217, 0.3354735969122054, 0.3382064605613613, 0.3168099141041544, 0.3270803313034655, 0.2990436029323149, 0.3099705731241606, 0.34661582178853345, 0.3354545196172677, 0.3430817340436753, 0.31845784559079227, 0.30047537838244875, 0.3331721152026926, 0.34309036358540235, 0.34068416913556976, 0.35664123393109576, 0.3613489078975625, 0.3087865501021636, 0.3035251214460878, 0.2983336967016045, 0.3433584486313628, 0.33638283894262777, 0.314146138584929, 0.3081731368673418, 0.3380088842100657, 0.32055551271973765, 0.3246788385752428, 0.33785671411256907, 0.3105488936790497, 0.3868133003073571, 0.30690132189772135, 0.3132775516511698, 0.2992050311687799, 0.31896114146201, 0.21492915027570403, 0.2594273617218568, 0.2627855251474337, 0.24911410300491593, 0.22210430527379668, 0.25315876339315274, 0.25066607407013186, 0.33722978118019714, 0.22599519705979046, 0.21691785961302323, 0.2752340383944482, 0.21695509498273247, 0.3150805489509473, 0.23694851523373067, 0.20791304877133893, 0.2461538241791169, 0.22422355915022765, 0.24693230946688186, 0.24489891719271056, 0.22040646462838623, 0.22568656304765317, 0.21338759998404708, 0.20753882094095807, 0.20167307027241788, 0.21956343461494138, 0.2133903519784499, 0.22798287307225448, 0.22626644529815712, 0.2371967112579167, 0.21793423450085048, 0.19747846930710933, 0.21195918692670548, 0.212893523187771, 0.23503368945658576, 0.2240934005846596, 0.2231437048698499, 0.244216504749473, 0.19910513808665498, 0.21904487032921643, 0.19882654403027997, 0.2088050763882348, 0.18273674651658342, 0.24126918857704224, 0.18744252122371785, 0.17816499877057693, 0.2232773524303565, 0.22709053857765196, 0.19733917352696742, 0.20974536731999918, 0.19208142349879034, 0.1653082379036563, 0.2208964099630773, 0.19039918459613864, 0.19216903134031002, 0.17434281995882173, 0.20693995266622814, 0.23902950000664694, 0.18171417826213704, 0.16276710719026688, 0.2420125055276751, 0.15807952364618325, 0.19699307787035134, 0.2135101652970213, 0.15395282433457455, 0.2696379142977997, 0.1582537946311423, 0.20861028029137324, 0.19817916920817805, 0.18870134550454898, 0.22712476675995902, 0.2692612659818666, 0.1620620750931061, 0.15603601536129755, 0.17192655841248802, 0.1454924933999011, 0.1929167750740858, 0.1435445478647136, 0.19324898447276023, 0.21926199982786296, 0.1834573499809446, 0.1888009749303001, 0.1436305426511158, 0.1658014507765502, 0.2144994317455145, 0.16693049645164276, 0.15733225375734758, 0.40363063142719374, 0.14150553818653197, 0.2117696272065056, 0.13339511228734402, 0.15663896487921777, 0.2884779655019519, 0.13366796654298208, 0.12353642331338649, 0.20484006267981764, 0.2114519318933356, 0.15487828747175136, 0.11444648271382687, 0.3070611111346668, 0.11905413951518619, 0.17373369899606442, 0.14879320684947064, 0.10859226604861107, 0.34932968033210615, 0.41935350509510116, 0.08908456962367112, 0.22955732467432816, 0.11626331817777835, 0.4227151876569009, 0.08399110936178196, 0.0639240247489201, 0.3745812440677344, 0.09221233779263471, 0.05978595951474819, 0.5917127076989105, 0.09570033509703299, 0.0509478205280821, 0.6827783629664628, 0.1011959629260653, 0.16665144333855897, 0.14132256975901322, 0.23695135734114572, 0.12002110951629819, 0.18498212799691102, 0.12042017334197735, 0.15797136470501302, 0.1756250465610848, 0.15902011645908282, 0.2007366798197964, 0.15983388694746928, 0.145725887290501, 0.13605162677827243, 0.15717655698721003, 0.1502108063033291]","[0.0, 59.78290234375, 61.8480361328125, 63.89914184570313, 65.9319541015625, 68.00796826171874, 70.04422607421874, 72.08453515624998, 74.12076342773436, 76.16537097167968, 78.20701684570312, 80.26016455078124, 82.3037735595703, 84.34720764160156, 86.40072985839844, 88.4399903564453, 90.51654284667968, 92.56021655273437, 94.6173369140625, 96.66192736816407, 98.7133729248047, 100.78129699707033, 102.84577673339845, 104.8912917480469, 106.95043310546878, 109.00609692382815, 111.05403503417972, 113.11815270996097, 115.17783215332034, 117.22919616699221, 119.27835900878908, 121.41526525878908, 123.4727977294922, 125.52604528808595, 127.57870520019533, 129.6326824951172, 131.76333361816407, 133.8113074951172, 135.8840213623047, 137.93344738769534, 140.0011793212891, 142.0572069091797, 144.17836755371096, 146.23642199707032, 148.27688012695313, 150.345427734375, 152.44845068359373, 154.84858374023435, 157.7714123535156, 161.0324321289062, 164.46467065429684, 168.58793334960933, 172.35702221679682, 176.2971901855468, 180.3245895996093, 184.6077712402343, 188.37995556640618, 192.14396874999994, 196.00607543945307, 200.81934985351558, 206.29955688476556, 210.93985766601557, 216.30438696289056, 221.45887133789057, 227.17111059570308, 233.02722436523433, 238.17008959960933, 243.31946655273433, 248.64988647460933, 254.64160180664058, 260.64529565429683, 266.6687941894531, 273.0263054199218, 279.55506079101553, 286.42604272460926, 292.2863400878905, 298.64062280273424, 305.19127612304675, 312.1481716308592, 319.00833081054674, 326.2268537597655, 333.45000268554674, 339.87742358398424, 346.431124267578, 353.49216186523427, 360.90214965820303, 368.61552758789054, 376.6931979980468, 385.6190935058593, 394.2513220214843, 403.2033112792968, 413.0681315917968, 423.20472241210933, 432.66555639648436, 442.63749780273434, 453.1132292480468, 462.91031030273433, 473.8907116699218, 486.1343386230468, 497.8237800292968, 509.02232299804683, 520.1808103027344, 530.8460788574218, 541.6610241699218, 553.3624870605468, 565.4611774902343, 576.9742058105468, 589.0019382324218, 602.5632624511718, 615.6052214355468, 628.5119899902343, 644.6677478027343, 659.4366872558593, 673.6828864746093, 689.1724362792968, 704.1171735839843, 723.3663005371093, 740.5938278808593, 758.3171599121093, 775.5174138183594, 793.5670310058593, 813.6871892089844, 836.9048415527344, 858.7058317871094, 884.4755700683595, 912.8146345214845, 939.1162712402346, 967.4862399902346, 994.7973864746095, 1024.3798532714845, 1056.4923786621096, 1088.7819587402346, 1118.8280153808596, 1145.9982399902347, 1173.1319196777347, 1205.2427478027346, 1238.4257517089845, 1270.7288200683595, 1321.2446794433595, 1363.2486325683594, 1416.6961716308595, 1468.1008786621094, 1511.6017419433595, 1576.0299685058594, 1635.4620974121094, 1682.5663513183595, 1732.9188161621096, 1817.1168239746096, 1916.2756989746097, 1994.7886755371096, 2105.6229177246096, 2195.3103395996095, 2345.4700739746095, 2524.3279802246093, 2657.6645427246094, 2872.9556989746093, 3249.080886474609, 3527.6000114746093, 3865.8338864746092, 4223.08044897461, 4939.075636474609, 5374.414417724609, 5776.381573974609, 6671.470323974609, 7250.024448974608, 7701.178011474608, 9016.045636474608, 9881.851948974609, 10383.807073974609, 11834.665823974608, 12867.727698974608, 13861.776573974608, 15081.449073974609, 16693.66957397461, 18312.71132397461, 20223.01119897461, 22004.08432397461, 24060.80219897461, 26372.05794897461, 28827.56394897461, 31681.94294897461, 34678.312198974614, 37789.893698974614, 40914.28119897461]","[39936, 439296, 838656, 1238016, 1637376, 2036736, 2436096, 2835456, 3234816, 3634176, 4033536, 4432896, 4832256, 5231616, 5630976, 6030336, 6429696, 6829056, 7228416, 7627776, 8027136, 8426496, 8825856, 9225216, 9624576, 10023936, 10423296, 10822656, 11222016, 11621376, 12020736, 12420096, 12819456, 13218816, 13618176, 14017536, 14416896, 14816256, 15215616, 15614976, 16014336, 16413696, 16813056, 17212416, 17611776, 18011136, 18490368, 19089408, 19768320, 20487168, 21365760, 22164480, 23003136, 23841792, 24760320, 25559040, 26357760, 27156480, 28194816, 29392896, 30391296, 31549440, 32667648, 33905664, 35183616, 36301824, 37420032, 38578176, 39896064, 41213952, 42531840, 43929600, 45367296, 46884864, 48162816, 49560576, 50998272, 52515840, 54033408, 55630848, 57228288, 58626048, 60063744, 61621248, 63258624, 64975872, 66772992, 68769792, 70686720, 72683520, 74880000, 77156352, 79272960, 81509376, 83865600, 86062080, 88538112, 91293696, 93929472, 96445440, 98961408, 101357568, 103793664, 106429440, 109145088, 111740928, 114456576, 117531648, 120486912, 123402240, 127076352, 130430976, 133665792, 137180160, 140574720, 144967680, 148881408, 152914944, 156828672, 160942080, 165534720, 170846208, 175838208, 181748736, 188258304, 194288640, 200798208, 207068160, 213857280, 221245440, 228673536, 235582464, 241812480, 248042496, 255430656, 263058432, 270486528, 282147840, 291812352, 304152576, 316013568, 326037504, 340933632, 354671616, 365534208, 377155584, 396644352, 419607552, 437778432, 463457280, 484224000, 519048192, 560541696, 591452160, 641412096, 728752128, 793408512, 871962624, 954949632, 1121323008, 1222440960, 1315811328, 1523837952, 1658262528, 1763134464, 2068844544, 2270082048, 2386695168, 2723994624, 2964169728, 3195239424, 3478824960, 3853624320, 4230021120, 4674069504, 5088086016, 5566199808, 6103458816, 6674224128, 7337640960, 8034204672, 8757245952, 9483162624, 10000014336]","[3.9936e-06, 4.39296e-05, 8.38656e-05, 0.0001238016, 0.0001637376, 0.0002036736, 0.0002436096, 0.0002835456, 0.0003234816, 0.0003634176, 0.0004033536, 0.0004432896, 0.0004832256, 0.0005231616, 0.0005630976, 0.0006030336, 0.0006429696, 0.0006829056, 0.0007228416, 0.0007627776, 0.0008027136, 0.0008426496, 0.0008825856, 0.0009225216, 0.0009624576, 0.0010023936, 0.0010423296, 0.0010822656, 0.0011222016, 0.0011621376, 0.0012020736, 0.0012420096, 0.0012819456, 0.0013218816, 0.0013618176, 0.0014017536, 0.0014416896, 0.0014816256, 0.0015215616, 0.0015614976, 0.0016014336, 0.0016413696, 0.0016813056, 0.0017212416, 0.0017611776, 0.0018011136, 0.0018490368, 0.0019089408, 0.001976832, 0.0020487168, 0.002136576, 0.002216448, 0.0023003136, 0.0023841792, 0.002476032, 0.002555904, 0.002635776, 0.002715648, 0.0028194816, 0.0029392896, 0.0030391296, 0.003154944, 0.0032667648, 0.0033905664, 0.0035183616, 0.0036301824, 0.0037420032, 0.0038578176, 0.0039896064, 0.0041213952, 0.004253184, 0.00439296, 0.0045367296, 0.0046884864, 0.0048162816, 0.0049560576, 0.0050998272, 0.005251584, 0.0054033408, 0.0055630848, 0.0057228288, 0.0058626048, 0.0060063744, 0.0061621248, 0.0063258624, 0.0064975872, 0.0066772992, 0.0068769792, 0.007068672, 0.007268352, 0.007488, 0.0077156352, 0.007927296, 0.0081509376, 0.00838656, 0.008606208, 0.0088538112, 0.0091293696, 0.0093929472, 0.009644544, 0.0098961408, 0.0101357568, 0.0103793664, 0.010642944, 0.0109145088, 0.0111740928, 0.0114456576, 0.0117531648, 0.0120486912, 0.012340224, 0.0127076352, 0.0130430976, 0.0133665792, 0.013718016, 0.014057472, 0.014496768, 0.0148881408, 0.0152914944, 0.0156828672, 0.016094208, 0.016553472, 0.0170846208, 0.0175838208, 0.0181748736, 0.0188258304, 0.019428864, 0.0200798208, 0.020706816, 0.021385728, 0.022124544, 0.0228673536, 0.0235582464, 0.024181248, 0.0248042496, 0.0255430656, 0.0263058432, 0.0270486528, 0.028214784, 0.0291812352, 0.0304152576, 0.0316013568, 0.0326037504, 0.0340933632, 0.0354671616, 0.0365534208, 0.0377155584, 0.0396644352, 0.0419607552, 0.0437778432, 0.046345728, 0.0484224, 0.0519048192, 0.0560541696, 0.059145216, 0.0641412096, 0.0728752128, 0.0793408512, 0.0871962624, 0.0954949632, 0.1121323008, 0.122244096, 0.1315811328, 0.1523837952, 0.1658262528, 0.1763134464, 0.2068844544, 0.2270082048, 0.2386695168, 0.2723994624, 0.2964169728, 0.3195239424, 0.347882496, 0.385362432, 0.423002112, 0.4674069504, 0.5088086016, 0.5566199808, 0.6103458816, 0.6674224128, 0.733764096, 0.8034204672, 0.8757245952, 0.9483162624, 1.0000014336]","[39, 39, 39, 39, 39, 39, 39, 39, 39, 39, 39, 39, 39, 39, 39, 39, 39, 39, 39, 39, 39, 39, 39, 39, 39, 39, 39, 39, 39, 39, 39, 39, 39, 39, 39, 39, 39, 39, 39, 39, 39, 39, 39, 39, 39, 39, 39, 39, 39, 39, 39, 39, 39, 39, 39, 39, 39, 39, 39, 39, 39, 39, 39, 39, 39, 39, 39, 39, 39, 39, 39, 39, 39, 39, 39, 39, 39, 39, 39, 39, 39, 39, 39, 39, 39, 39, 39, 39, 39, 39, 39, 39, 39, 39, 39, 39, 39, 39, 39, 39, 39, 39, 39, 39, 39, 39, 39, 39, 39, 39, 39, 39, 39, 39, 39, 39, 39, 39, 39, 39, 39, 39, 39, 39, 39, 39, 39, 39, 39, 39, 39, 39, 39, 39, 39, 39, 39, 39, 39, 39, 39, 39, 39, 39, 39, 39, 39, 39, 39, 39, 39, 39, 39, 39, 39, 39, 39, 39, 39, 39, 39, 39, 39, 39, 39, 39, 39, 39, 39, 39, 39, 39, 39, 39, 39, 39, 39, 39, 39, 39, 39, 39, 39, 39]","[1024, 1024, 1024, 1024, 1024, 1024, 1024, 1024, 1024, 1024, 1024, 1024, 1024, 1024, 1024, 1024, 1024, 1024, 1024, 1024, 1024, 1024, 1024, 1024, 1024, 1024, 1024, 1024, 1024, 1024, 1024, 1024, 1024, 1024, 1024, 1024, 1024, 1024, 1024, 1024, 1024, 1024, 1024, 1024, 1024, 1024, 1024, 1024, 1024, 1024, 1024, 1024, 1024, 1024, 1024, 1024, 1024, 1024, 1024, 1024, 1024, 1024, 1024, 1024, 1024, 1024, 1024, 1024, 1024, 1024, 1024, 1024, 1024, 1024, 1024, 1024, 1024, 1024, 1024, 1024, 1024, 1024, 1024, 1024, 1024, 1024, 1024, 1024, 1024, 1024, 1024, 1024, 1024, 1024, 1024, 1024, 1024, 1024, 1024, 1024, 1024, 1024, 1024, 1024, 1024, 1024, 1024, 1024, 1024, 1024, 1024, 1024, 1024, 1024, 1024, 1024, 1024, 1024, 1024, 1024, 1024, 1024, 1024, 1024, 1024, 1024, 1024, 1024, 1024, 1024, 1024, 1024, 1024, 1024, 1024, 1024, 1024, 1024, 1024, 1024, 1024, 1024, 1024, 1024, 1024, 1024, 1024, 1024, 1024, 1024, 1024, 1024, 1024, 1024, 1024, 1024, 1024, 1024, 1024, 1024, 1024, 1024, 1024, 1024, 1024, 1024, 1024, 1024, 1024, 1024, 1024, 1024, 1024, 1024, 1024, 1024, 1024, 1024, 1024, 1024, 1024, 1024, 1024, 1024]","[5.051487918244324e-05, 0.0002980377871764151, 0.0005455606951703869, 0.0007930836031643588, 0.0010406065111583308, 0.0012881294191523025, 0.0015356523271462745, 0.0017831752351402462, 0.002030698143134218, 0.00227822105112819, 0.002525743959122162, 0.002084864853703878, 0.0019797565083994858, 0.0019190239170720866, 0.001876577973342039, 0.0018440967772343044, 0.0018178704752361996, 0.0017959268981150428, 0.0017770944945941164, 0.0017606215429044787, 0.0017459974819933847, 0.0017328600308405746, 0.0017209430284930395, 0.0017100453160035349, 0.0017000112443709271, 0.0016907179642908427, 0.0016820668538598375, 0.0016739775685819165, 0.001666383807903993, 0.001659230237319848, 0.0016524702077062364, 0.0016460640366920813, 0.0016399776939358295, 0.0016341817817068602, 0.0016286507347358853, 0.001623362185173344, 0.0016182964534668604, 0.0016134361363944851, 0.0016087657708650858, 0.0016042715573892626, 0.0015999411309722037, 0.001595763370012311, 0.0015917282358979378, 0.0015878266375807335, 0.0015840503166090038, 0.001580391749028161, 0.0015768440612694823, 0.0015734009577049383, 0.0015700566579828854, 0.0015668058426049915, 0.0015636436054798802, 0.001560565412409355, 0.0015575670646406814, 0.0015546446667623226, 0.001551794598337809, 0.001549013488768455, 0.0015462981949546683, 0.0015436457813909244, 0.0015410535023837417, 0.0015385187861272065, 0.0015360392204084876, 0.0015336125397475892, 0.0015312366138024408, 0.0015289094368931507, 0.0015266291185185342, 0.001524393874754488, 0.001522202020437827, 0.0015200519620512543, 0.001517942191235493, 0.0015158712788635432, 0.0015138378696197524, 0.0015118406770330696, 0.0015098784789196857, 0.0015079501131953113, 0.0015060544740217751, 0.0015041905082564956, 0.0015023572121767627, 0.0015005536284537575, 0.0014987788433538582, 0.001497031984147097, 0.0014953122167046771, 0.0014936187432692833, 0.001491950800383511, 0.0014903076569631828, 0.0014886886125035895, 0.0014870929954078217, 0.001485520161427383, 0.0014839694922061735, 0.0014824403939197467, 0.001480932296002478, 0.0014794446499559267, 0.0014779769282322716, 0.0014765286231872335, 0.0014750992460973616, 0.0014736883262370156, 0.0014722954100107476, 0.001470920060137152, 0.0014695618548805746, 0.0014682203873273578, 0.0014668952647035635, 0.0014655861077313675, 0.0014642925500215275, 0.0014630142374995273, 0.0014617508278631955, 0.0014605019900697464, 0.001459267403850359, 0.0014580467592505393, 0.0014568397561946468, 0.0014556461040730762, 0.0014544655213507042, 0.0014532977351952975, 0.0014521424811246777, 0.0014509995026715252, 0.0014498685510647706, 0.0014487493849266056, 0.0014476417699842026, 0.0014465454787952986, 0.0014454602904868516, 0.0014443859905060312, 0.001443322370382854, 0.0014422692275038174, 0.0014412263648959259, 0.0014401935910205463, 0.0014391707195765622, 0.0014381575693123239, 0.0014371539638459354, 0.001436159731493436, 0.0014351747051044622, 0.0014341987219050104, 0.0014332316233469302, 0.001432273254963809, 0.0014313234662329246, 0.0014303821104429668, 0.0014294490445672316, 0.0014285241291420324, 0.0014276072281500637, 0.0014266982089084811, 0.001425796941961471, 0.0014249033009770976, 0.0014240171626482205, 0.0014231384065972984, 0.0014222669152848917, 0.0014214025739216999, 0.0014205452703839616, 0.0014196948951320787, 0.001418851341132303, 0.0014180145037813623, 0.001417184280833884, 0.001416360572332502, 0.0014155432805405188, 0.0014147323098770241, 0.0014139275668543514, 0.0014131289600177808, 0.0014123363998873885, 0.0014115497989019535, 0.0014107690713648325, 0.0014099941333917253, 0.0014092249028602485, 0.0014084612993612439, 0.0014077032441517513, 0.0014069506601095798, 0.0014062034716894076, 0.0014054616048803546, 0.0014047249871649676, 0.0014039935474795602, 0.0014032672161758558, 0.0014025459249838842, 0.0014018296069760793, 0.001401118196532534, 0.0014004116293073715, 0.0013997098421961803, 0.001399012773304484, 0.0013983203619172013, 0.0013976325484690573, 0.0013969492745159174, 0.001396270482707001, 0.0013955961167579527, 0.0013949261214247295, 0.0013942604424782826, 0.0013935990266799995, 0.0013929418217578848, 0.001392288776383446, 0.001391639840149267, 0.001391188003176718]","[16.0, 8.953057525735152e-06, 2.2618833951036665e-05, 3.4858043148605576e-05, 5.05012977070793e-05, 7.316478034140814e-05, 8.27882275580011e-05, 9.964794623110138e-05, 9.367745779066276e-05, 0.0001443669851764812, 0.0001535681466565814, 0.0001848421070510764, 0.0001737671405796618, 0.0002677937552947131, 0.00023666494453226047, 0.00019662293126943784, 0.00025174867277288475, 0.0002848614635579075, 0.0003223296175768086, 0.0003647260007357621, 0.0003223296175768086, 0.0003879716397899993, 0.0003647260007357621, 0.0003647260007357621, 0.0004669815774700653, 0.0004669815774700653, 0.0005284041983121468, 0.0005284041983121468, 0.0006765490411208203, 0.0003647260007357621, 0.0004967444273161115, 0.0007655363100811292, 0.0004669815774700653, 0.00041269882864860955, 0.0005979058067056204, 0.0007655363100811292, 0.0005979058067056204, 0.0005620817898299683, 0.0007196685740870995, 0.0006360130503435115, 0.0006765490411208203, 0.0007655363100811292, 0.0005620817898299683, 0.0007655363100811292, 0.0005979058067056204, 0.0007655363100811292, 0.0008662281762778711, 0.0009801641587688596, 0.0010426344575758478, 0.0013349502989674698, 0.0009214368191597745, 0.0011090862713139026, 0.001510537838203444, 0.0016068112524755568, 0.0013349502989674698, 0.0011090862713139026, 0.0013349502989674698, 0.0010426344575758478, 0.0009801641587688596, 0.0011090862713139026, 0.0012549656567344947, 0.0017092206072459447, 0.0017092206072459447, 0.0013349502989674698, 0.0014200327245212918, 0.0017092206072459447, 0.001818156973778498, 0.0017092206072459447, 0.0013349502989674698, 0.0014200327245212918, 0.0019340363480790394, 0.0016068112524755568, 0.002327900423853803, 0.0026340918283780184, 0.0016068112524755568, 0.0019340363480790394, 0.002327900423853803, 0.0024762680557142897, 0.0026340918283780184, 0.002327900423853803, 0.0021884223603633847, 0.002801974424504067, 0.0021884223603633847, 0.002801974424504067, 0.0019340363480790394, 0.002801974424504067, 0.002980556938445577, 0.003170521324400895, 0.0024762680557142897, 0.002801974424504067, 0.0026340918283780184, 0.0024762680557142897, 0.0026340918283780184, 0.002327900423853803, 0.003170521324400895, 0.002801974424504067, 0.003170521324400895, 0.003587543619446129, 0.0045933571373359796, 0.003372593000596473, 0.003170521324400895, 0.002980556938445577, 0.004059417333791517, 0.003170521324400895, 0.0038161940142650993, 0.0038161940142650993, 0.004059417333791517, 0.0045933571373359796, 0.003587543619446129, 0.00552878855536345, 0.0045933571373359796, 0.003372593000596473, 0.003372593000596473, 0.004318142376485131, 0.003587543619446129, 0.003587543619446129, 0.0038161940142650993, 0.004318142376485131, 0.0045933571373359796, 0.0045933571373359796, 0.004059417333791517, 0.004886112580727232, 0.005881163277499826, 0.0045933571373359796, 0.006065685163471772, 0.0045933571373359796, 0.004318142376485131, 0.0045933571373359796, 0.00519752665375966, 0.00552878855536345, 0.0045933571373359796, 0.006654719408046329, 0.00552878855536345, 0.00686351166866672, 0.005881163277499826, 0.00552878855536345, 0.00552878855536345, 0.006452278736845388, 0.006452278736845388, 0.00552878855536345, 0.008520454698927704, 0.00519752665375966, 0.00686351166866672, 0.007530022260945431, 0.005881163277499826, 0.005881163277499826, 0.004886112580727232, 0.009063501846950324, 0.006452278736845388, 0.006065685163471772, 0.0070788548002437834, 0.006654719408046329, 0.008787784527432828, 0.009641159847960946, 0.006654719408046329, 0.008787784527432828, 0.007530022260945431, 0.008261257208782206, 0.009347869815564258, 0.00776627720634308, 0.0070788548002437834, 0.006065685163471772, 0.010255634608295545, 0.009347869815564258, 0.006654719408046329, 0.009943651874480406, 0.007300954336786124, 0.007300954336786124, 0.009347869815564258, 0.008261257208782206, 0.008520454698927704, 0.009641159847960946, 0.008009944666244748, 0.008261257208782206, 0.009943651874480406, 0.008787784527432828, 0.008787784527432828, 0.009347869815564258, 0.011604569954852437, 0.008787784527432828, 0.009347869815564258, 0.011251551775330382, 0.01354291617777505, 0.008520454698927704]"
0.0,fineweb,false,false,false,1.0,0.0,0.0,0.0,false,false,false,false,false,1.0001001527155036,8,384,46014344,7376264,1,false,1600,1,1.0,1000000000,1000000000000,1000000000,0.7,"[10.9375, 7.21875, 6.65625, 6.5625, 6.53125, 6.28125, 6.21875, 6.03125, 5.96875, 6.0625, 5.75, 5.78125, 5.625, 5.6875, 5.6875, 5.59375, 5.625, 5.5625, 5.46875, 5.375, 5.4375, 5.375, 5.4375, 5.34375, 5.34375, 5.34375, 5.15625, 5.15625, 5.25, 5.21875, 5.1875, 5.3125, 5.1875, 5.1875, 5.0, 5.1875, 5.09375, 5.0625, 5.0625, 4.96875, 5.125, 5.0625, 4.96875, 5.1875, 5.03125, 5.03125, 5.0, 4.9375, 5.0, 4.96875, 4.90625, 4.875, 4.6875, 4.78125, 4.90625, 4.71875, 4.71875, 4.5625, 4.8125, 4.59375, 4.65625, 4.53125, 4.6875, 4.5, 4.625, 4.6875, 4.65625, 4.59375, 4.53125, 4.53125, 4.5625, 4.5, 4.53125, 4.53125, 4.5625, 4.5, 4.46875, 4.4375, 4.53125, 4.46875, 4.4375, 4.34375, 4.3125, 4.3125, 4.375, 4.40625, 4.5625, 4.21875, 4.28125, 4.4375, 4.15625, 4.21875, 4.28125, 4.1875, 4.3125, 4.09375, 4.03125, 4.09375, 4.09375, 4.125, 4.03125, 4.125, 4.25, 4.125, 4.0625, 4.15625, 4.1875, 4.09375, 4.0625, 3.96875, 3.9375, 4.03125, 3.921875, 4.0, 3.875, 3.921875, 3.96875, 4.09375, 3.953125, 3.890625, 3.96875, 3.921875, 3.875, 3.953125, 3.875, 3.84375, 3.875, 3.859375, 3.875, 3.734375, 3.84375, 3.953125, 3.859375, 3.9375, 3.609375, 3.8125, 3.890625, 3.625, 3.5625, 3.859375, 3.71875, 3.8125, 3.8125, 3.828125, 3.859375, 3.6875, 3.59375, 3.796875, 3.609375, 3.765625, 3.734375, 3.640625]","[56320.0, 1368.0, 780.0, 708.0, 688.0, 536.0, 502.0, 416.0, 392.0, 430.0, 314.0, 324.0, 278.0, 296.0, 296.0, 270.0, 278.0, 260.0, 237.0, 216.0, 230.0, 216.0, 230.0, 209.0, 209.0, 209.0, 174.0, 174.0, 191.0, 185.0, 179.0, 203.0, 179.0, 179.0, 149.0, 179.0, 163.0, 158.0, 158.0, 144.0, 168.0, 158.0, 144.0, 179.0, 153.0, 153.0, 149.0, 140.0, 149.0, 144.0, 135.0, 131.0, 108.5, 119.5, 135.0, 112.0, 112.0, 96.0, 123.0, 99.0, 105.5, 93.0, 108.5, 90.0, 102.0, 108.5, 105.5, 99.0, 93.0, 93.0, 96.0, 90.0, 93.0, 93.0, 96.0, 90.0, 87.5, 84.5, 93.0, 87.5, 84.5, 77.0, 74.5, 74.5, 79.5, 82.0, 96.0, 68.0, 72.5, 84.5, 64.0, 68.0, 72.5, 66.0, 74.5, 60.0, 56.25, 60.0, 60.0, 62.0, 56.25, 62.0, 70.0, 62.0, 58.25, 64.0, 66.0, 60.0, 58.25, 53.0, 51.25, 56.25, 50.5, 54.75, 48.25, 50.5, 53.0, 60.0, 52.25, 49.0, 53.0, 50.5, 48.25, 52.25, 48.25, 46.75, 48.25, 47.5, 48.25, 42.0, 46.75, 52.25, 47.5, 51.25, 37.0, 45.25, 49.0, 37.5, 35.25, 47.5, 41.25, 45.25, 45.25, 46.0, 47.5, 40.0, 36.5, 44.5, 37.0, 43.25, 42.0, 38.25]","[2.504006442904938e-05, 0.06850961595773697, 0.0927734375, 0.09405048191547394, 0.10101161897182465, 0.09585336595773697, 0.10096153616905212, 0.1160106211900711, 0.10794771462678909, 0.11623597890138626, 0.11868990212678909, 0.10459234565496445, 0.12252103537321091, 0.14488181471824646, 0.12995792925357819, 0.11105268448591232, 0.11806390434503555, 0.11934094876050949, 0.11911558359861374, 0.13113482296466827, 0.11798878014087677, 0.13599258661270142, 0.15244391560554504, 0.1437550038099289, 0.14100059866905212, 0.12399839609861374, 0.15857872366905212, 0.1479116678237915, 0.13120993971824646, 0.12414863705635071, 0.1287059336900711, 0.14403045177459717, 0.1402994841337204, 0.15186798572540283, 0.14207732677459717, 0.14773638546466827, 0.14150139689445496, 0.1437550038099289, 0.12652744352817535, 0.1448567658662796, 0.13927283883094788, 0.12329727411270142, 0.13917267322540283, 0.11668670177459717, 0.15614983439445496, 0.15680088102817535, 0.16160857677459717, 0.15061599016189575, 0.12477464228868484, 0.14262820780277252, 0.14691005647182465, 0.14951422810554504, 0.1607321798801422, 0.15402144193649292, 0.16225962340831757, 0.15958033502101898, 0.1515675038099289, 0.2069060504436493, 0.15129207074642181, 0.1636117845773697, 0.1587790548801422, 0.1411508470773697, 0.15234375, 0.1916065663099289, 0.17685797810554504, 0.14718550443649292, 0.14195212721824646, 0.17117388546466827, 0.17730869352817535, 0.14976462721824646, 0.18269230425357819, 0.1772836595773697, 0.1536458283662796, 0.1697966754436493, 0.1575520783662796, 0.1815154254436493, 0.16571514308452606, 0.16058193147182465, 0.17320212721824646, 0.20597957074642181, 0.18857672810554504, 0.1883513629436493, 0.18527144193649292, 0.1577524095773697, 0.18354366719722748, 0.15737681090831757, 0.16689203679561615, 0.20688101649284363, 0.16543971002101898, 0.19255809485912323, 0.2095603048801422, 0.18093951046466827, 0.19944411516189575, 0.18850161135196686, 0.17340244352817535, 0.17595653235912323, 0.18714943528175354, 0.2037760466337204, 0.20054587721824646, 0.20372596383094788, 0.23056891560554504, 0.18960337340831757, 0.1798126995563507, 0.21088741719722748, 0.16416266560554504, 0.185546875, 0.1765574961900711, 0.19841746985912323, 0.19636417925357819, 0.20612980425357819, 0.2019481211900711, 0.18116486072540283, 0.18995392322540283, 0.2143930345773697, 0.21524439752101898, 0.20387619733810425, 0.21351662278175354, 0.20895934104919434, 0.18103966116905212, 0.17032252252101898, 0.21233974397182465, 0.17455428838729858, 0.21231471002101898, 0.18669871985912323, 0.22072817385196686, 0.21379207074642181, 0.17690806090831757, 0.19573818147182465, 0.1830679178237915, 0.19305889308452606, 0.20522837340831757, 0.18629807233810425, 0.20875900983810425, 0.19741587340831757, 0.1959635466337204, 0.21649639308452606, 0.22080329060554504, 0.21567007899284363, 0.20875900983810425, 0.21018630266189575, 0.20420172810554504, 0.16734275221824646, 0.1973908245563507, 0.22533553838729858, 0.21511919796466827, 0.2218048870563507, 0.22215545177459717, 0.22861579060554504, 0.2185496836900711, 0.21391727030277252, 0.18825119733810425, 0.23662860691547394]","[10.9375, 9.3125, 8.9375, 9.125, 9.375, 9.3125, 9.4375, 9.25, 9.375, 9.5, 9.125, 9.375, 10.0, 9.625, 9.5625, 9.5, 9.5625, 9.625, 9.375, 9.4375, 9.375, 9.4375, 9.625, 9.3125, 9.4375, 9.5625, 9.5, 9.5, 9.625, 9.375, 9.625, 9.5625, 9.5625, 9.625, 9.5625, 9.6875, 9.5625, 9.5625, 9.6875, 9.625, 9.6875, 9.75, 9.75, 9.6875, 9.75, 9.5, 9.75, 9.6875, 9.625, 9.6875, 9.75, 9.5, 9.8125, 9.875, 10.0, 9.875, 9.75, 9.875, 10.0, 9.875, 10.0, 9.875, 9.8125, 10.5625, 10.75, 10.3125, 11.625, 11.75, 12.0625, 10.5, 10.3125, 10.4375, 10.3125, 10.4375, 10.4375, 10.75, 10.875, 10.75, 10.875, 11.4375, 11.1875, 11.4375, 11.0625, 10.25, 10.75, 10.4375, 10.125, 10.375, 10.0625, 10.3125, 10.4375, 10.125, 10.0, 10.125, 9.875, 10.1875, 10.125, 10.6875, 10.6875, 10.4375, 11.1875, 10.75, 10.75, 11.0, 10.5, 10.5, 10.25, 10.5, 10.625, 10.1875, 10.375, 9.8125, 10.25, 10.3125, 10.375, 10.375, 10.4375, 10.4375, 10.0625, 10.0625, 10.5625, 9.8125, 10.125, 9.8125, 9.8125, 9.9375, 9.75, 9.9375, 9.875, 9.5625, 9.625, 9.5625, 9.5625, 9.5625, 9.4375, 9.4375, 9.5625, 9.6875, 9.6875, 9.5, 9.4375, 9.4375, 9.375, 9.5625, 9.4375, 9.5625, 9.625, 9.5625, 9.625, 9.5625, 9.5625, 9.5625]","[56320.0, 11072.0, 7616.0, 9216.0, 11840.0, 11072.0, 12544.0, 10432.0, 11840.0, 13376.0, 9216.0, 11840.0, 22016.0, 15168.0, 14272.0, 13376.0, 14272.0, 15168.0, 11840.0, 12544.0, 11840.0, 12544.0, 15168.0, 11072.0, 12544.0, 14272.0, 13376.0, 13376.0, 15168.0, 11840.0, 15168.0, 14272.0, 14272.0, 15168.0, 14272.0, 16128.0, 14272.0, 14272.0, 16128.0, 15168.0, 16128.0, 17152.0, 17152.0, 16128.0, 17152.0, 13376.0, 17152.0, 16128.0, 15168.0, 16128.0, 17152.0, 13376.0, 18304.0, 19456.0, 22016.0, 19456.0, 17152.0, 19456.0, 22016.0, 19456.0, 22016.0, 19456.0, 18304.0, 38656.0, 46592.0, 30208.0, 112128.0, 126976.0, 174080.0, 36352.0, 30208.0, 34304.0, 30208.0, 34304.0, 34304.0, 46592.0, 52992.0, 46592.0, 52992.0, 92672.0, 72192.0, 92672.0, 63744.0, 28288.0, 46592.0, 34304.0, 24960.0, 32128.0, 23424.0, 30208.0, 34304.0, 24960.0, 22016.0, 24960.0, 19456.0, 26624.0, 24960.0, 43776.0, 43776.0, 34304.0, 72192.0, 46592.0, 46592.0, 59904.0, 36352.0, 36352.0, 28288.0, 36352.0, 41216.0, 26624.0, 32128.0, 18304.0, 28288.0, 30208.0, 32128.0, 32128.0, 34304.0, 34304.0, 23424.0, 23424.0, 38656.0, 18304.0, 24960.0, 18304.0, 18304.0, 20736.0, 17152.0, 20736.0, 19456.0, 14272.0, 15168.0, 14272.0, 14272.0, 14272.0, 12544.0, 12544.0, 14272.0, 16128.0, 16128.0, 13376.0, 12544.0, 12544.0, 11840.0, 14272.0, 12544.0, 14272.0, 15168.0, 14272.0, 15168.0, 14272.0, 14272.0, 14272.0]","[10.9375, 9.3125, 8.9375, 9.0625, 9.3125, 9.25, 9.3125, 9.1875, 9.1875, 9.3125, 9.125, 9.25, 9.25, 9.3125, 9.375, 9.25, 9.25, 9.25, 9.25, 9.3125, 9.3125, 9.375, 9.375, 9.3125, 9.4375, 9.4375, 9.3125, 9.375, 9.5, 9.1875, 9.375, 9.375, 9.4375, 9.4375, 9.3125, 9.5, 9.25, 9.3125, 9.5, 9.3125, 9.375, 9.375, 9.4375, 9.4375, 9.4375, 9.3125, 9.4375, 9.375, 9.375, 9.4375, 9.375, 9.1875, 9.375, 9.4375, 9.4375, 9.375, 9.4375, 9.4375, 9.5, 9.4375, 9.4375, 9.3125, 9.25, 9.375, 9.5625, 9.5, 9.6875, 9.625, 9.8125, 9.3125, 9.4375, 9.375, 9.375, 9.25, 9.3125, 9.1875, 9.1875, 9.375, 9.375, 9.375, 9.25, 9.4375, 9.5625, 9.25, 9.4375, 9.1875, 9.1875, 9.25, 9.3125, 9.3125, 9.3125, 9.1875, 9.0625, 9.0625, 8.9375, 9.125, 8.9375, 9.0625, 9.125, 9.125, 9.1875, 9.0625, 9.125, 9.1875, 9.1875, 9.125, 8.9375, 9.0, 9.125, 9.0625, 9.0, 8.875, 9.0625, 9.0, 9.0625, 9.0, 8.875, 9.0, 8.8125, 8.875, 8.9375, 8.875, 8.9375, 8.8125, 8.875, 9.0625, 9.125, 9.0625, 9.1875, 9.0, 9.0, 9.0, 8.9375, 8.875, 8.75, 8.8125, 8.8125, 8.875, 8.75, 8.6875, 8.625, 8.5625, 8.625, 8.6875, 8.625, 8.625, 8.6875, 8.75, 8.6875, 8.8125, 8.6875, 8.75]","[56320.0, 11072.0, 7616.0, 8640.0, 11072.0, 10432.0, 11072.0, 9792.0, 9792.0, 11072.0, 9216.0, 10432.0, 10432.0, 11072.0, 11840.0, 10432.0, 10432.0, 10432.0, 10432.0, 11072.0, 11072.0, 11840.0, 11840.0, 11072.0, 12544.0, 12544.0, 11072.0, 11840.0, 13376.0, 9792.0, 11840.0, 11840.0, 12544.0, 12544.0, 11072.0, 13376.0, 10432.0, 11072.0, 13376.0, 11072.0, 11840.0, 11840.0, 12544.0, 12544.0, 12544.0, 11072.0, 12544.0, 11840.0, 11840.0, 12544.0, 11840.0, 9792.0, 11840.0, 12544.0, 12544.0, 11840.0, 12544.0, 12544.0, 13376.0, 12544.0, 12544.0, 11072.0, 10432.0, 11840.0, 14272.0, 13376.0, 16128.0, 15168.0, 18304.0, 11072.0, 12544.0, 11840.0, 11840.0, 10432.0, 11072.0, 9792.0, 9792.0, 11840.0, 11840.0, 11840.0, 10432.0, 12544.0, 14272.0, 10432.0, 12544.0, 9792.0, 9792.0, 10432.0, 11072.0, 11072.0, 11072.0, 9792.0, 8640.0, 8640.0, 7616.0, 9216.0, 7616.0, 8640.0, 9216.0, 9216.0, 9792.0, 8640.0, 9216.0, 9792.0, 9792.0, 9216.0, 7616.0, 8128.0, 9216.0, 8640.0, 8128.0, 7168.0, 8640.0, 8128.0, 8640.0, 8128.0, 7168.0, 8128.0, 6720.0, 7168.0, 7616.0, 7168.0, 7616.0, 6720.0, 7168.0, 8640.0, 9216.0, 8640.0, 9792.0, 8128.0, 8128.0, 8128.0, 7616.0, 7168.0, 6336.0, 6720.0, 6720.0, 7168.0, 6336.0, 5952.0, 5568.0, 5248.0, 5568.0, 5952.0, 5568.0, 5568.0, 5952.0, 6336.0, 5952.0, 6720.0, 5952.0, 6336.0]","[10.9375, 8.9375, 8.6875, 8.875, 9.125, 9.0625, 9.0625, 9.0625, 9.125, 9.3125, 9.0625, 9.1875, 9.8125, 9.25, 9.5625, 9.4375, 9.375, 9.375, 9.125, 9.25, 9.125, 9.125, 9.5, 9.25, 9.4375, 9.5, 9.375, 9.3125, 9.4375, 9.25, 9.375, 9.3125, 9.3125, 9.4375, 9.375, 9.5625, 9.4375, 9.375, 9.375, 9.3125, 9.375, 9.5625, 9.4375, 9.375, 9.625, 9.25, 9.4375, 9.4375, 9.3125, 9.6875, 9.875, 9.5625, 9.8125, 10.1875, 10.5, 10.6875, 10.0, 10.1875, 10.875, 10.5625, 10.8125, 10.5, 10.125, 11.375, 12.25, 12.75, 15.6875, 15.5625, 16.375, 11.9375, 11.4375, 11.9375, 11.8125, 10.8125, 11.25, 10.9375, 11.25, 11.875, 12.125, 12.4375, 12.375, 13.5625, 12.875, 11.5625, 12.0625, 11.1875, 10.5625, 10.875, 11.0625, 11.0, 10.75, 10.9375, 10.3125, 10.25, 9.875, 10.25, 10.1875, 10.375, 11.1875, 10.5, 10.625, 10.9375, 11.5625, 11.625, 11.8125, 11.75, 11.0, 11.1875, 11.375, 10.9375, 10.8125, 10.5, 10.75, 10.1875, 10.3125, 10.5625, 10.4375, 10.75, 10.75, 10.4375, 10.6875, 10.25, 10.3125, 9.9375, 9.9375, 10.0, 10.3125, 10.5, 9.875, 9.625, 9.6875, 9.75, 9.3125, 9.25, 9.3125, 9.0, 9.0625, 9.0, 8.875, 8.9375, 8.875, 8.8125, 8.875, 8.875, 9.0, 8.9375, 8.9375, 9.0625, 8.9375, 9.1875, 9.0625, 9.125]","[56320.0, 7616.0, 5952.0, 7168.0, 9216.0, 8640.0, 8640.0, 8640.0, 9216.0, 11072.0, 8640.0, 9792.0, 18304.0, 10432.0, 14272.0, 12544.0, 11840.0, 11840.0, 9216.0, 10432.0, 9216.0, 9216.0, 13376.0, 10432.0, 12544.0, 13376.0, 11840.0, 11072.0, 12544.0, 10432.0, 11840.0, 11072.0, 11072.0, 12544.0, 11840.0, 14272.0, 12544.0, 11840.0, 11840.0, 11072.0, 11840.0, 14272.0, 12544.0, 11840.0, 15168.0, 10432.0, 12544.0, 12544.0, 11072.0, 16128.0, 19456.0, 14272.0, 18304.0, 26624.0, 36352.0, 43776.0, 22016.0, 26624.0, 52992.0, 38656.0, 49664.0, 36352.0, 24960.0, 87040.0, 209920.0, 346112.0, 6520832.0, 5767168.0, 12976128.0, 153600.0, 92672.0, 153600.0, 135168.0, 49664.0, 76800.0, 56320.0, 76800.0, 144384.0, 184320.0, 252928.0, 237568.0, 778240.0, 391168.0, 105472.0, 174080.0, 72192.0, 38656.0, 52992.0, 63744.0, 59904.0, 46592.0, 56320.0, 30208.0, 28288.0, 19456.0, 28288.0, 26624.0, 32128.0, 72192.0, 36352.0, 41216.0, 56320.0, 105472.0, 112128.0, 135168.0, 126976.0, 59904.0, 72192.0, 87040.0, 56320.0, 49664.0, 36352.0, 46592.0, 26624.0, 30208.0, 38656.0, 34304.0, 46592.0, 46592.0, 34304.0, 43776.0, 28288.0, 30208.0, 20736.0, 20736.0, 22016.0, 30208.0, 36352.0, 19456.0, 15168.0, 16128.0, 17152.0, 11072.0, 10432.0, 11072.0, 8128.0, 8640.0, 8128.0, 7168.0, 7616.0, 7168.0, 6720.0, 7168.0, 7168.0, 8128.0, 7616.0, 7616.0, 8640.0, 7616.0, 9792.0, 8640.0, 9216.0]","[0.0, 0.0009506489150226116, 0.0018193847499787807, 0.001612436375580728, 0.0022011795081198215, 0.0008707911474630237, 0.001246364787220955, 0.001448016264475882, 0.0006650317809544504, 0.0005391953745856881, 0.001543853897601366, 0.0008262414485216141, 0.0002060835831798613, 0.0007398274028673768, 0.00012417732796166092, 0.0002871912729460746, 0.0003287311119493097, 0.0006140997284092009, 0.0011169486679136753, 0.0007422679918818176, 0.0012335526989772916, 0.0009501776657998562, 0.0007438938482664526, 0.0018127883085981011, 0.001862428616732359, 0.001323462463915348, 0.000914190779440105, 0.0022502813953906298, 0.0013683860888704658, 0.0011892069596797228, 0.0009111994877457619, 0.0010342972818762064, 0.0008296000887639821, 0.0004524514661170542, 0.0008636644342914224, 0.001493218238465488, 0.000578799401409924, 0.0007053941953927279, 0.0010761143639683723, 0.0007831176044419408, 0.0007869775872677565, 0.00037180865183472633, 0.0011158407432958484, 0.001113539794459939, 0.0003716397623065859, 0.0007041378412395716, 0.0010346397757530212, 0.0005797581980004907, 0.001198941608890891, 0.0004134623450227082, 0.0005406754207797348, 0.0007832790142856538, 0.0008307717507705092, 0.0007046923856250942, 0.0009083776967599988, 0.0003350785409566015, 0.0004970796289853752, 0.0007435251027345657, 0.000699358235578984, 0.0009053497924469411, 0.0005394862382672727, 0.0009505703346803784, 0.0012421846622601151, 0.0016005910001695156, 0.001482030376791954, 0.0016178544610738754, 0.0014447884168475866, 0.0011889144079759717, 0.000910596048925072, 0.001655149506404996, 0.001984701259061694, 0.0016864100471138954, 0.0012699193321168423, 0.0021986225619912148, 0.0025749648921191692, 0.0027477103285491467, 0.00248323823325336, 0.0029906542040407658, 0.0026932957116514444, 0.0036967056803405285, 0.003704771166667342, 0.003911879844963551, 0.0029121770057827234, 0.004115568473935127, 0.003329864703118801, 0.004232189618051052, 0.004588483367115259, 0.0031390690710395575, 0.00448952428996563, 0.0043897791765630245, 0.004572473466396332, 0.00564552703872323, 0.006296342238783836, 0.005301963537931442, 0.006323136854916811, 0.005443363916128874, 0.006463299039751291, 0.006648222450166941, 0.007427385542541742, 0.006319763604551554, 0.007676434237509966, 0.008061821572482586, 0.009847142733633518, 0.007865168154239655, 0.008107884787023067, 0.009340026415884495, 0.0087530966848135, 0.01037677563726902, 0.00906982459127903, 0.010414083488285542, 0.010224356316030025, 0.00891199428588152, 0.010624225251376629, 0.008867979049682617, 0.009071504697203636, 0.01103970967233181, 0.009836742654442787, 0.012085464783012867, 0.011550404131412506, 0.01202926691621542, 0.013477311469614506, 0.011543536558747292, 0.013163848780095577, 0.01333719864487648, 0.013169337995350361, 0.012423903681337833, 0.009633351117372513, 0.012202662415802479, 0.011516713537275791, 0.012593938037753105, 0.014325227588415146, 0.012759237550199032, 0.013651736080646515, 0.014652165584266186, 0.013500124216079712, 0.014595824293792248, 0.014400993473827839, 0.011348629370331764, 0.010499232448637486, 0.014481392689049244, 0.011750051751732826, 0.010590448044240475, 0.013093018904328346, 0.013495556078851223, 0.013394707813858986, 0.012004951015114784, 0.010642293840646744, 0.013190877623856068, 0.01269108708947897, 0.013378478586673737, 0.011564035899937153, 0.013619804754853249]","[0.0, 0.0010183892445638776, 0.001716363593004644, 0.0012200436322018504, 0.001567807630635798, 0.001628901343792677, 0.0014830754371359944, 0.0012800744734704494, 0.001540473778732121, 0.0015107056824490428, 0.0015716863563284278, 0.001308976672589779, 0.0013955922331660986, 0.0015712290769442916, 0.0013395457062870264, 0.0014832911547273397, 0.0015695849433541298, 0.0016006053192541003, 0.0012225650716573, 0.0012795905349776149, 0.0011642121244221926, 0.0018013307126238942, 0.001567944185808301, 0.001567807630635798, 0.0018321942770853639, 0.0015113643603399396, 0.0019777214620262384, 0.00244171847589314, 0.0016582300886511803, 0.00136695452965796, 0.0012483668979257345, 0.001366358483210206, 0.0016279543051496148, 0.0014255789574235678, 0.0018315550405532122, 0.0016564951511099935, 0.001453699660487473, 0.0011908565647900105, 0.0010755188995972276, 0.0015690831933170557, 0.0016289487248286605, 0.0014528970932587981, 0.0012504361802712083, 0.001395267783664167, 0.0012784008868038654, 0.001832993933930993, 0.0017741324845701456, 0.0017144185258075595, 0.0016290908679366112, 0.0015132995322346687, 0.0015999999595806003, 0.001338220783509314, 0.0020344697404652834, 0.0016568322898820043, 0.0020659954752773046, 0.001366239390335977, 0.002006980823352933, 0.0021217844914644957, 0.0015097844880074263, 0.001600838266313076, 0.0010758942225947976, 0.0018041087314486504, 0.002443707548081875, 0.0022381769958883524, 0.0019481274066492915, 0.0020077985245734453, 0.0014553074724972248, 0.0011634333059191704, 0.0014235909329727292, 0.0016005587531253695, 0.002125120023265481, 0.0018611684208735824, 0.0015694480389356613, 0.0021532282698899508, 0.0027034098748117685, 0.00310766464099288, 0.002471289364621043, 0.002706084167584777, 0.0025894674472510815, 0.0025881121400743723, 0.00329023995436728, 0.0037209303118288517, 0.0030526805203408003, 0.0036011964548379183, 0.003113904967904091, 0.003983947914093733, 0.0040697674266994, 0.0037224451079964638, 0.003930817358195782, 0.00471327593550086, 0.003752727061510086, 0.005406348034739494, 0.006074168719351292, 0.00576050253584981, 0.006666860543191433, 0.005090316757559776, 0.006160104647278786, 0.005900819785892963, 0.006230711005628109, 0.005749462638050318, 0.006976946722716093, 0.007428338285535574, 0.007845415733754635, 0.006655622273683548, 0.007556821685284376, 0.00660056434571743, 0.008439064025878906, 0.008315887302160263, 0.007303305435925722, 0.009600558318197727, 0.007733682170510292, 0.007733907084912062, 0.008813519962131977, 0.007564736530184746, 0.008227222599089146, 0.007994882762432098, 0.009379173628985882, 0.009567569009959698, 0.010478824377059937, 0.0093270568177104, 0.012014196254312992, 0.009930890053510666, 0.010948163457214832, 0.011167984455823898, 0.011714435182511806, 0.01076394971460104, 0.009472888894379139, 0.011252944357693195, 0.012124912813305855, 0.012360399588942528, 0.012053103186190128, 0.011630273424088955, 0.013031210750341415, 0.013561096973717213, 0.013911073096096516, 0.014669499360024929, 0.0154409846290946, 0.01221533864736557, 0.011936916969716549, 0.013498574495315552, 0.012071673758327961, 0.011760948225855827, 0.01308710128068924, 0.01160119753330946, 0.011574814096093178, 0.011474552564322948, 0.00964275375008583, 0.011608285829424858, 0.011362316086888313, 0.011437385343015194, 0.010115984827280045, 0.012335263192653656]","[0.0, 0.0, 0.0, 0.00010016026499215513, 0.0003004807804245502, 0.0, 0.0, 3.338675378472544e-05, 0.0, 3.338675378472544e-05, 6.677350756945089e-05, 0.0, 0.00010016026499215513, 6.677350756945089e-05, 0.0, 0.00010016026499215513, 0.00010016026499215513, 3.338675378472544e-05, 3.338675378472544e-05, 0.00010016026499215513, 6.677350756945089e-05, 0.0001669337652856484, 0.00020032052998431027, 0.00026709403027780354, 0.00013354701513890177, 0.0002337072801310569, 0.0, 0.0005675748107023537, 6.677350756945089e-05, 0.00020032052998431027, 0.0002337072801310569, 0.00013354701513890177, 0.0002337072801310569, 0.00010016026499215513, 0.00026709403027780354, 0.0002337072801310569, 0.0003004807804245502, 0.00026709403027780354, 0.0002337072801310569, 0.0003004807804245502, 0.000634348310995847, 0.00020032052998431027, 0.00026709403027780354, 0.0004340278101153672, 0.00010016026499215513, 0.0004674145602621138, 0.0005341880605556071, 0.0004674145602621138, 0.0004674145602621138, 0.0004340278101153672, 0.0006677350611425936, 0.0005675748107023537, 0.0007345085614360869, 0.0008012821199372411, 0.0010016026208177209, 0.0006009615608491004, 0.0008012821199372411, 0.0008346688700839877, 0.0007011218112893403, 0.0013020833721384406, 0.0005675748107023537, 0.0011017628712579608, 0.001268696621991694, 0.0013354701222851872, 0.0016025642398744822, 0.001702724490314722, 0.0016693377401679754, 0.001168536371551454, 0.0013688568724319339, 0.001535790623165667, 0.001969818491488695, 0.001802884740754962, 0.0016025642398744822, 0.0019364317413419485, 0.0021033654920756817, 0.0027377137448638678, 0.0023036859929561615, 0.0032051284797489643, 0.002804487245157361, 0.003338675480335951, 0.0037393164820969105, 0.00390625, 0.0035723827313631773, 0.004240117501467466, 0.00393963698297739, 0.005074786487966776, 0.004273504484444857, 0.0044738249853253365, 0.005408653989434242, 0.005642361473292112, 0.0047743059694767, 0.006710737477988005, 0.0061765494756400585, 0.005876068491488695, 0.0069110579788684845, 0.006009615492075682, 0.006410256959497929, 0.007745726965367794, 0.007578792981803417, 0.007178151980042458, 0.007345085963606834, 0.008914262987673283, 0.010416666977107525, 0.00821314100176096, 0.009314903989434242, 0.0086805559694767, 0.009849091991782188, 0.009581997990608215, 0.008914262987673283, 0.01221955195069313, 0.010616987943649292, 0.009815705940127373, 0.010950854979455471, 0.009381677955389023, 0.010016025975346565, 0.0095486119389534, 0.010950854979455471, 0.011184562928974628, 0.011919070966541767, 0.010783921927213669, 0.01308760792016983, 0.01135149598121643, 0.012686965987086296, 0.01342147495597601, 0.01308760792016983, 0.011384882964193821, 0.010917468927800655, 0.013120993971824646, 0.01302083395421505, 0.013788728974759579, 0.013588408939540386, 0.013655181974172592, 0.013955662958323956, 0.014823718927800655, 0.014489850960671902, 0.015257746912539005, 0.01686030998826027, 0.014022436924278736, 0.015124199911952019, 0.015558226965367794, 0.014690171927213669, 0.014857104979455471, 0.017895299941301346, 0.016826923936605453, 0.015424679964780807, 0.015625, 0.014556624926626682, 0.017027243971824646, 0.014656784944236279, 0.015825321897864342, 0.015057425945997238, 0.016092415899038315]","[0.0, 0.01753271371126175, 0.027107669040560722, 0.024128517135977745, 0.025980578735470772, 0.021554993465542793, 0.023383336141705513, 0.024865208193659782, 0.024437865242362022, 0.013585238717496395, 0.02504696324467659, 0.020851876586675644, 0.00886818952858448, 0.024413686245679855, 0.012993598356842995, 0.014651072211563587, 0.01608974300324917, 0.01811734214425087, 0.022203894332051277, 0.020846616476774216, 0.018250511959195137, 0.02161474898457527, 0.01607471890747547, 0.026813074946403503, 0.027767213061451912, 0.022910451516509056, 0.025455232709646225, 0.025472111999988556, 0.020164350047707558, 0.01807074062526226, 0.018870314583182335, 0.021630194038152695, 0.018574677407741547, 0.017281105741858482, 0.018756801262497902, 0.02135591022670269, 0.014605029486119747, 0.015092195011675358, 0.015847859904170036, 0.015503382310271263, 0.013613625429570675, 0.012778131291270256, 0.017853740602731705, 0.014851169660687447, 0.011069405823946, 0.015259924344718456, 0.0188930444419384, 0.012794528156518936, 0.014287528581917286, 0.006158730480819941, 0.006040775217115879, 0.009375597350299358, 0.008510906249284744, 0.006514039821922779, 0.006298912223428488, 0.0051055350340902805, 0.009370054118335247, 0.009346983395516872, 0.0038392627611756325, 0.00486057810485363, 0.0027148176450282335, 0.003240152494981885, 0.006588533520698547, 0.005330764688551426, 0.0019175454508513212, 0.001073910272680223, 0.0009547450463287532, 0.00025733403163030744, 0.0005704868235625327, 0.0011414800537750125, 0.001015808549709618, 0.0016641065012663603, 0.0009017713600769639, 0.00315855978988111, 0.002585445763543248, 0.003267152700573206, 0.0027894002851098776, 0.0006304773269221187, 0.0013922288781031966, 0.0016677358653396368, 0.0012146008666604757, 0.0005750431446358562, 0.0010692495852708817, 0.0012593665160238743, 0.0009427439654245973, 0.0014524785801768303, 0.0024134647101163864, 0.0013354531256482005, 0.0010705289896577597, 0.0014567102771252394, 0.0016373826656490564, 0.0015316868666559458, 0.0024691359139978886, 0.003608965314924717, 0.004492651205509901, 0.0023314431309700012, 0.0023010545410215855, 0.0023538393434137106, 0.001641828683204949, 0.0017343269428238273, 0.0022921175695955753, 0.00181295326910913, 0.001085221883840859, 0.001320256502367556, 0.0009516558493487537, 0.0010875128209590912, 0.001399847213178873, 0.0013417673762887716, 0.0009499683510512114, 0.0008895666105672717, 0.0005070351180620492, 0.001146569848060608, 0.0013971803709864616, 0.0013821700122207403, 0.001669449033215642, 0.0015325670829042792, 0.0014611524529755116, 0.0014657150022685528, 0.001901020179502666, 0.0015878056874498725, 0.0016589037841185927, 0.0016581631498411298, 0.0015997951850295067, 0.0014563413569703698, 0.001710051205009222, 0.0016467160312458873, 0.0012615907471626997, 0.0017220485024154186, 0.002140518743544817, 0.00235398905351758, 0.0013364730402827263, 0.0012598425382748246, 0.0018483110470697284, 0.0019266585586592555, 0.0016545754624530673, 0.002603009343147278, 0.0022826706990599632, 0.004266429226845503, 0.004861417692154646, 0.0022295834496617317, 0.004920824896544218, 0.0036175709683448076, 0.009303208440542221, 0.016210420057177544, 0.015231955796480179, 0.018157491460442543, 0.019780905917286873, 0.019806424155831337, 0.020297441631555557, 0.017750348895788193, 0.0175539031624794, 0.019645120948553085]","[0.0, 0.014008620753884315, 0.022837620228528976, 0.01923425868153572, 0.022938285022974014, 0.019974807277321815, 0.019286228343844414, 0.021391335874795914, 0.02585427649319172, 0.02139619179069996, 0.02366439625620842, 0.021590501070022583, 0.0227354746311903, 0.027478449046611786, 0.023588277399539948, 0.024311183020472527, 0.027657266706228256, 0.024219591170549393, 0.0227517019957304, 0.023063063621520996, 0.021513087674975395, 0.02392604574561119, 0.02601892314851284, 0.026397233828902245, 0.028463339433073997, 0.02585894986987114, 0.02755267359316349, 0.02746656909584999, 0.022833513095974922, 0.02142985723912716, 0.02349298819899559, 0.024196460843086243, 0.02365902066230774, 0.024442847818136215, 0.022567249834537506, 0.0266015212982893, 0.02201768569648266, 0.024514256045222282, 0.01879291608929634, 0.022097446024417877, 0.022490104660391808, 0.018471568822860718, 0.02433309331536293, 0.021503431722521782, 0.020115984603762627, 0.023535752668976784, 0.02953358367085457, 0.023180007934570312, 0.020859558135271072, 0.019555076956748962, 0.020679734647274017, 0.02535059303045273, 0.020256828516721725, 0.023856859654188156, 0.01687612198293209, 0.02222222276031971, 0.02213822863996029, 0.02928945980966091, 0.020021842792630196, 0.018282847478985786, 0.0174900833517313, 0.018491920083761215, 0.020316433161497116, 0.02259172312915325, 0.018759019672870636, 0.014183123596012592, 0.007169743999838829, 0.013141314499080181, 0.00942712090909481, 0.010945630259811878, 0.015398388728499413, 0.017841052263975143, 0.015011755749583244, 0.01687915250658989, 0.016802167519927025, 0.019255222752690315, 0.016964446753263474, 0.011133057996630669, 0.015091627836227417, 0.013338139280676842, 0.015557940118014812, 0.011380057781934738, 0.013357400894165039, 0.01163002010434866, 0.00897021871060133, 0.01405911985784769, 0.018786126747727394, 0.012792793102562428, 0.012517883442342281, 0.01689128391444683, 0.014745550230145454, 0.013195950537919998, 0.019536903128027916, 0.016175413504242897, 0.021478431299328804, 0.01925499364733696, 0.01575801521539688, 0.020238524302840233, 0.012701251544058323, 0.020734811201691628, 0.021852988749742508, 0.016583452001214027, 0.01394674926996231, 0.013383975252509117, 0.009584086015820503, 0.00883678998798132, 0.011127064004540443, 0.0158730149269104, 0.015445401892066002, 0.014380729757249355, 0.012813571840524673, 0.0115481773391366, 0.013676444999873638, 0.01994250901043415, 0.013362224213778973, 0.01552626769989729, 0.017279010266065598, 0.018021265044808388, 0.013259273022413254, 0.018478261306881905, 0.01924460381269455, 0.01691524125635624, 0.016906017437577248, 0.01657060533761978, 0.014636790379881859, 0.021754764020442963, 0.011771097779273987, 0.01406672690063715, 0.017496392130851746, 0.017471181228756905, 0.021832497790455818, 0.014613024890422821, 0.02177433855831623, 0.020276332274079323, 0.013810648582875729, 0.021329987794160843, 0.023796645924448967, 0.02142985723912716, 0.019981835037469864, 0.016001438722014427, 0.020870817825198174, 0.01709090918302536, 0.018915509805083275, 0.024355042725801468, 0.02431994117796421, 0.025217706337571144, 0.02088630571961403, 0.019410496577620506, 0.020456191152334213, 0.02098654769361019, 0.015898825600743294, 0.01995326206088066]","[0.0, 0.009415064007043839, 0.014022435992956161, 0.014523237012326717, 0.011818910017609596, 0.00741185899823904, 0.008814102970063686, 0.011818910017609596, 0.006710737477988005, 0.0015024038730189204, 0.014222756959497929, 0.007111378479748964, 0.0010016026208177209, 0.0013020833721384406, 0.0007011218112893403, 0.0012019231216982007, 0.0009014423121698201, 0.0009014423121698201, 0.008814102970063686, 0.007011217996478081, 0.005408653989434242, 0.0036057692486792803, 0.0020032052416354418, 0.01722756400704384, 0.013521634973585606, 0.010316506959497929, 0.0069110579788684845, 0.015424679964780807, 0.009014423005282879, 0.006109775509685278, 0.0014022436225786805, 0.005608974490314722, 0.015124198980629444, 0.006009615492075682, 0.0021033654920756817, 0.006009615492075682, 0.0012019231216982007, 0.005709134507924318, 0.004707532003521919, 0.0013020833721384406, 0.0012019231216982007, 0.0008012820617295802, 0.0016025641234591603, 0.0012019231216982007, 0.002704326994717121, 0.0035056089982390404, 0.0022035257425159216, 0.0016025641234591603, 0.006710737477988005, 0.0007011218112893403, 0.0006009615608491004, 0.0015024038730189204, 0.0009014423121698201, 0.0010016026208177209, 0.0014022436225786805, 0.003004807746037841, 0.003004807746037841, 0.006310096010565758, 0.0011017628712579608, 0.0009014423121698201, 0.0021033654920756817, 0.0005008013104088604, 0.0008012820617295802, 0.0018028846243396401, 0.0014022436225786805, 0.0004006410308647901, 0.0006009615608491004, 0.0005008013104088604, 0.0005008013104088604, 0.00010016025771619752, 0.0007011218112893403, 0.0006009615608491004, 0.0003004807804245502, 0.0007011218112893403, 0.00020032051543239504, 0.0007011218112893403, 0.0005008013104088604, 0.0006009615608491004, 0.0003004807804245502, 0.0005008013104088604, 0.0004006410308647901, 0.0004006410308647901, 0.0005008013104088604, 0.0003004807804245502, 0.0003004807804245502, 0.0, 0.0, 0.00020032051543239504, 0.0005008013104088604, 0.0007011218112893403, 0.0009014423121698201, 0.00010016025771619752, 0.0006009615608491004, 0.00020032051543239504, 0.0010016026208177209, 0.0004006410308647901, 0.00010016025771619752, 0.0005008013104088604, 0.00020032051543239504, 0.00010016025771619752, 0.0005008013104088604, 0.00010016025771619752, 0.00010016025771619752, 0.0005008013104088604, 0.00020032051543239504, 0.00020032051543239504, 0.00010016025771619752, 0.00020032051543239504, 0.0004006410308647901, 0.00010016025771619752, 0.0004006410308647901, 0.0, 0.00010016025771619752, 0.0003004807804245502, 0.00010016025771619752, 0.00020032051543239504, 0.00020032051543239504, 0.00010016025771619752, 0.00010016025771619752, 0.00020032051543239504, 0.0004006410308647901, 0.0, 0.00010016025771619752, 0.0, 0.0004006410308647901, 0.00020032051543239504, 0.0, 0.0, 0.0, 0.00020032051543239504, 0.00020032051543239504, 0.00010016025771619752, 0.00010016025771619752, 0.0, 0.0, 0.00010016025771619752, 0.0, 0.0, 0.0, 0.0003004807804245502, 0.0003004807804245502, 0.0, 0.00010016025771619752, 0.0008012820617295802, 0.00010016025771619752, 0.0009014423121698201, 0.0004006410308647901, 0.0010016026208177209, 0.0010016026208177209, 0.0004006410308647901, 0.0009014423121698201, 0.0015024038730189204]",[],[],[],[],[],[],[],[],[],"[1.6460986252927305, 1.4615539458894997, 0.3988739134290299, 0.3911574132835271, 0.4735874762663486, 0.3489902025057373, 0.3791845719876892, 0.7556006194046578, 0.3689765366795532, 0.48521206470598544, 0.36535752408925937, 0.3286347845383753, 0.3200776440163423, 0.3091065940863943, 0.33178974892044916, 0.3554358534276004, 0.3212887661071616, 0.3746467519842122, 0.35607415612035925, 0.3074412039997224, 0.2889664686176012, 0.325444620422133, 0.31448888473546777, 0.3437381174732252, 0.30822762574298507, 0.32733466025571156, 0.2889726732206312, 0.2992354202447303, 0.3153676730126527, 0.3277203187894703, 0.33063638561306086, 0.35881630034749196, 0.31624681634146246, 0.2947093141569628, 0.29391780515453647, 0.3147944758207777, 0.3520252387824196, 0.32384013333016687, 0.32106117952542323, 0.3127524892526405, 0.34795340717563317, 0.32351357984014434, 0.32621729064722776, 0.34924109216473487, 0.29994423221115835, 0.35218941204993526, 0.317637401954321, 0.3189294076424051, 0.34676786177860286, 0.32717164243327806, 0.21182388043616227, 0.2614529670401347, 0.29772848963519816, 0.2354423621209511, 0.21129666100822173, 0.26424321443909815, 0.26181161268542175, 0.2333567125141729, 0.2626625762651626, 0.2690833027102447, 0.26234313726264863, 0.24785613978445195, 0.2597110794267391, 0.2423965091547167, 0.19952730299669488, 0.23788105030475765, 0.22338463461724495, 0.2058105085526744, 0.22592811724595507, 0.2371359434160533, 0.2516798822134882, 0.2136594065649507, 0.23016652430573603, 0.21200790667609976, 0.2175587312829521, 0.26232510577425294, 0.2040761596440332, 0.2008876198498868, 0.21528555343187045, 0.20836934693667047, 0.1986306045605499, 0.19381868052180906, 0.1895801948212361, 0.18967722442830937, 0.24366840261131759, 0.20841250765386687, 0.2354016830386331, 0.22678976309264764, 0.1915435323029127, 0.2474099351028146, 0.1715331282603282, 0.20413895371724133, 0.23960140372803163, 0.20100911900742974, 0.21038366669940237, 0.25042081813769856, 0.18886439554725878, 0.21968696263888218, 0.1613736693130034, 0.21341424908195458, 0.17864605836280947, 0.21758024344791252, 0.20681236289097948, 0.19734416828541587, 0.23381213447888258, 0.3318715404097161, 0.1614318648188344, 0.16512340017188398, 0.33181835218511874, 0.13518858004287243, 0.18768621178514247, 0.21300876258569745, 0.15805167819066235, 0.19108735647222116, 0.22517137706299975, 0.1883630905117176, 0.19087894391771662, 0.123204563300818, 0.2914521220871023, 0.2793614352076573, 0.13983028199701486, 0.2509274715345008, 0.13558055002637426, 0.45186126137520094, 0.09677667961153755, 0.4357074449219103, 0.20188326824143876, 0.10715053708574464, 0.5403201370267654, 0.12465103564952143, 0.14139070123239017, 0.2894474640729388, 0.2385949508771672, 0.12727374159266305, 0.24117085547574624, 0.09635909285120531, 0.4517523336428752, 0.13606798273306805, 0.35228824735139275, 0.12571119944154172, 0.19384310942825658, 0.2276333526045782, 0.16548033362527104, 0.2191172055245509, 0.18594994444771556, 0.17413040693394222, 0.17847314828511254, 0.15262750180606854, 0.17927250675749942, 0.15086806365014294, 0.2091530332092451, 0.09175091448569839]","[0.0, 43.56139453125, 44.71928356933594, 45.871932983398445, 47.028878662109385, 48.18144152832032, 49.328230102539074, 50.47591992187501, 51.621250976562514, 52.775657348632826, 54.01013708496095, 55.17149462890627, 56.343027343750016, 57.49888806152345, 58.67352795410158, 59.84121594238283, 60.99372558593752, 62.15682995605471, 63.31919860839846, 64.48708642578127, 65.65478881835939, 66.81146350097659, 67.98142761230471, 69.14452685546878, 70.32632556152348, 71.49069970703128, 72.64641418457035, 73.8058552246094, 74.97561621093753, 76.13376086425784, 77.30215661621097, 78.47346484375002, 79.64195422363284, 80.8051716308594, 81.96516198730471, 83.13726086425784, 84.30187670898441, 85.46246704101566, 86.63019909667972, 87.78616845703128, 88.95063977050785, 90.1603629150391, 91.31040734863285, 92.47370202636722, 93.62716992187504, 94.7856968994141, 96.00021496582036, 97.20573693847662, 98.85806250000006, 100.42829846191412, 102.37230920410163, 104.67651647949225, 106.80843127441412, 109.31630871582037, 112.01192590332037, 114.69604260253912, 117.0245657958985, 119.34877722167974, 121.76947375488287, 124.29312121582036, 127.00315051269537, 129.72309069824223, 132.69556701660161, 135.595213256836, 138.75784484863286, 142.04474645996098, 144.93380505371098, 147.8816380615235, 151.24784484863287, 154.61100378417973, 157.92110729980473, 161.094531616211, 164.37285070800786, 167.75666101074222, 171.42451965332035, 175.2798631591797, 179.50481384277347, 184.21821618652348, 188.9804881591797, 193.60041833496098, 198.50978796386724, 203.90607116699223, 209.67500378417972, 216.01427429199222, 222.17621228027346, 227.2617606201172, 233.21131677246095, 238.9787088623047, 245.81300817871096, 253.49668054199222, 260.72252868652345, 269.45384606933595, 278.08665466308594, 286.5349573974609, 295.4641986083984, 304.7166673583984, 314.31265466308594, 325.2579525146484, 337.6921732177734, 352.1819788818359, 363.9779163818359, 376.1465784912109, 388.0200296630859, 400.3177884521484, 413.00067907714845, 425.61218395996093, 439.2314329833984, 458.9599290771484, 478.04887829589836, 496.3351849365234, 523.3625697021483, 545.6215638427733, 567.1819896240233, 591.6908138427733, 615.5696927490233, 640.6709232177733, 670.0004349365233, 707.0686849365234, 749.6886614990234, 783.6413763427734, 827.0277435302734, 887.5363372802734, 947.1102943115234, 1014.9201146240234, 1082.1723724365233, 1213.3160130615233, 1299.0089739990233, 1437.0820833740233, 1588.3011146240233, 1701.9170286865233, 1962.3187786865233, 2179.9230599365233, 2348.7100286865234, 2611.5168411865234, 2945.803122436523, 3466.490216186523, 4313.195278686523, 4834.694122436523, 5767.370559936523, 6622.307747436523, 7769.698247436523, 8811.223622436522, 9970.106747436523, 11291.017122436522, 12554.172872436522, 13962.806497436522, 15409.695247436523, 16987.312997436522, 18680.45674743652, 20302.518497436522, 22055.586622436524, 23775.425122436525]","[39936, 439296, 838656, 1238016, 1637376, 2036736, 2436096, 2835456, 3234816, 3634176, 4033536, 4432896, 4832256, 5231616, 5630976, 6030336, 6429696, 6829056, 7228416, 7627776, 8027136, 8426496, 8825856, 9225216, 9624576, 10023936, 10423296, 10822656, 11222016, 11621376, 12020736, 12420096, 12819456, 13218816, 13618176, 14017536, 14416896, 14816256, 15215616, 15614976, 16014336, 16413696, 16813056, 17212416, 17611776, 18011136, 18410496, 19009536, 19568640, 20287488, 21166080, 21964800, 22923264, 23961600, 24960000, 25838592, 26717184, 27635712, 28594176, 29632512, 30670848, 31828992, 32947200, 34185216, 35463168, 36581376, 37699584, 39017472, 40335360, 41613312, 42851328, 44129280, 45447168, 46884864, 48402432, 50079744, 51956736, 53833728, 55670784, 57627648, 59784192, 62100480, 64656384, 67132416, 69169152, 71565312, 73881600, 76637184, 79752192, 82667520, 86221824, 89736192, 93170688, 96804864, 100558848, 104472576, 108945408, 114017280, 119967744, 124800000, 129792000, 134664192, 139696128, 144887808, 150039552, 155630592, 163777536, 171644928, 179192832, 190374912, 199560192, 208465920, 218609664, 228473856, 238857216, 250997760, 266373120, 284064768, 298122240, 316133376, 341293056, 366053376, 394248192, 422203392, 476835840, 512498688, 570006528, 632985600, 680269824, 788855808, 879550464, 949917696, 1059382272, 1198758912, 1415531520, 1768725504, 1985977344, 2374554624, 2730983424, 3209576448, 3644040192, 4127545344, 4678582272, 5205457920, 5793156096, 6396668928, 7054894080, 7761242112, 8437957632, 9169265664, 9886715904, 10000014336]","[3.9936e-06, 4.39296e-05, 8.38656e-05, 0.0001238016, 0.0001637376, 0.0002036736, 0.0002436096, 0.0002835456, 0.0003234816, 0.0003634176, 0.0004033536, 0.0004432896, 0.0004832256, 0.0005231616, 0.0005630976, 0.0006030336, 0.0006429696, 0.0006829056, 0.0007228416, 0.0007627776, 0.0008027136, 0.0008426496, 0.0008825856, 0.0009225216, 0.0009624576, 0.0010023936, 0.0010423296, 0.0010822656, 0.0011222016, 0.0011621376, 0.0012020736, 0.0012420096, 0.0012819456, 0.0013218816, 0.0013618176, 0.0014017536, 0.0014416896, 0.0014816256, 0.0015215616, 0.0015614976, 0.0016014336, 0.0016413696, 0.0016813056, 0.0017212416, 0.0017611776, 0.0018011136, 0.0018410496, 0.0019009536, 0.001956864, 0.0020287488, 0.002116608, 0.00219648, 0.0022923264, 0.00239616, 0.002496, 0.0025838592, 0.0026717184, 0.0027635712, 0.0028594176, 0.0029632512, 0.0030670848, 0.0031828992, 0.00329472, 0.0034185216, 0.0035463168, 0.0036581376, 0.0037699584, 0.0039017472, 0.004033536, 0.0041613312, 0.0042851328, 0.004412928, 0.0045447168, 0.0046884864, 0.0048402432, 0.0050079744, 0.0051956736, 0.0053833728, 0.0055670784, 0.0057627648, 0.0059784192, 0.006210048, 0.0064656384, 0.0067132416, 0.0069169152, 0.0071565312, 0.00738816, 0.0076637184, 0.0079752192, 0.008266752, 0.0086221824, 0.0089736192, 0.0093170688, 0.0096804864, 0.0100558848, 0.0104472576, 0.0108945408, 0.011401728, 0.0119967744, 0.01248, 0.0129792, 0.0134664192, 0.0139696128, 0.0144887808, 0.0150039552, 0.0155630592, 0.0163777536, 0.0171644928, 0.0179192832, 0.0190374912, 0.0199560192, 0.020846592, 0.0218609664, 0.0228473856, 0.0238857216, 0.025099776, 0.026637312, 0.0284064768, 0.029812224, 0.0316133376, 0.0341293056, 0.0366053376, 0.0394248192, 0.0422203392, 0.047683584, 0.0512498688, 0.0570006528, 0.06329856, 0.0680269824, 0.0788855808, 0.0879550464, 0.0949917696, 0.1059382272, 0.1198758912, 0.141553152, 0.1768725504, 0.1985977344, 0.2374554624, 0.2730983424, 0.3209576448, 0.3644040192, 0.4127545344, 0.4678582272, 0.520545792, 0.5793156096, 0.6396668928, 0.705489408, 0.7761242112, 0.8437957632, 0.9169265664, 0.9886715904, 1.0000014336]","[39, 39, 39, 39, 39, 39, 39, 39, 39, 39, 39, 39, 39, 39, 39, 39, 39, 39, 39, 39, 39, 39, 39, 39, 39, 39, 39, 39, 39, 39, 39, 39, 39, 39, 39, 39, 39, 39, 39, 39, 39, 39, 39, 39, 39, 39, 39, 39, 39, 39, 39, 39, 39, 39, 39, 39, 39, 39, 39, 39, 39, 39, 39, 39, 39, 39, 39, 39, 39, 39, 39, 39, 39, 39, 39, 39, 39, 39, 39, 39, 39, 39, 39, 39, 39, 39, 39, 39, 39, 39, 39, 39, 39, 39, 39, 39, 39, 39, 39, 39, 39, 39, 39, 39, 39, 39, 39, 39, 39, 39, 39, 39, 39, 39, 39, 39, 39, 39, 39, 39, 39, 39, 39, 39, 39, 39, 39, 39, 39, 39, 39, 39, 39, 39, 39, 39, 39, 39, 39, 39, 39, 39, 39, 39, 39, 39, 39, 39, 39, 39, 39, 39]","[1024, 1024, 1024, 1024, 1024, 1024, 1024, 1024, 1024, 1024, 1024, 1024, 1024, 1024, 1024, 1024, 1024, 1024, 1024, 1024, 1024, 1024, 1024, 1024, 1024, 1024, 1024, 1024, 1024, 1024, 1024, 1024, 1024, 1024, 1024, 1024, 1024, 1024, 1024, 1024, 1024, 1024, 1024, 1024, 1024, 1024, 1024, 1024, 1024, 1024, 1024, 1024, 1024, 1024, 1024, 1024, 1024, 1024, 1024, 1024, 1024, 1024, 1024, 1024, 1024, 1024, 1024, 1024, 1024, 1024, 1024, 1024, 1024, 1024, 1024, 1024, 1024, 1024, 1024, 1024, 1024, 1024, 1024, 1024, 1024, 1024, 1024, 1024, 1024, 1024, 1024, 1024, 1024, 1024, 1024, 1024, 1024, 1024, 1024, 1024, 1024, 1024, 1024, 1024, 1024, 1024, 1024, 1024, 1024, 1024, 1024, 1024, 1024, 1024, 1024, 1024, 1024, 1024, 1024, 1024, 1024, 1024, 1024, 1024, 1024, 1024, 1024, 1024, 1024, 1024, 1024, 1024, 1024, 1024, 1024, 1024, 1024, 1024, 1024, 1024, 1024, 1024, 1024, 1024, 1024, 1024, 1024, 1024, 1024, 1024, 1024, 1024]","[5.051487918244324e-05, 0.0002980377871764151, 0.0005455606951703869, 0.0007930836031643588, 0.0010406065111583308, 0.0012881294191523025, 0.0015356523271462745, 0.0017831752351402462, 0.002030698143134218, 0.00227822105112819, 0.002525743959122162, 0.002084864853703878, 0.0019797565083994858, 0.0019190239170720866, 0.001876577973342039, 0.0018440967772343044, 0.0018178704752361996, 0.0017959268981150428, 0.0017770944945941164, 0.0017606215429044787, 0.0017459974819933847, 0.0017328600308405746, 0.0017209430284930395, 0.0017100453160035349, 0.0017000112443709271, 0.0016907179642908427, 0.0016820668538598375, 0.0016739775685819165, 0.001666383807903993, 0.001659230237319848, 0.0016524702077062364, 0.0016460640366920813, 0.0016399776939358295, 0.0016341817817068602, 0.0016286507347358853, 0.001623362185173344, 0.0016182964534668604, 0.0016134361363944851, 0.0016087657708650858, 0.0016042715573892626, 0.0015999411309722037, 0.001595763370012311, 0.0015917282358979378, 0.0015878266375807335, 0.0015840503166090038, 0.001580391749028161, 0.0015768440612694823, 0.0015734009577049383, 0.0015700566579828854, 0.0015668058426049915, 0.0015636436054798802, 0.001560565412409355, 0.0015575670646406814, 0.0015546446667623226, 0.001551794598337809, 0.001549013488768455, 0.0015462981949546683, 0.0015436457813909244, 0.0015410535023837417, 0.0015385187861272065, 0.0015360392204084876, 0.0015336125397475892, 0.0015312366138024408, 0.0015289094368931507, 0.0015266291185185342, 0.001524393874754488, 0.001522202020437827, 0.0015200519620512543, 0.001517942191235493, 0.0015158712788635432, 0.0015138378696197524, 0.0015118406770330696, 0.0015098784789196857, 0.0015079501131953113, 0.0015060544740217751, 0.0015041905082564956, 0.0015023572121767627, 0.0015005536284537575, 0.0014987788433538582, 0.001497031984147097, 0.0014953122167046771, 0.0014936187432692833, 0.001491950800383511, 0.0014903076569631828, 0.0014886886125035895, 0.0014870929954078217, 0.001485520161427383, 0.0014839694922061735, 0.0014824403939197467, 0.001480932296002478, 0.0014794446499559267, 0.0014779769282322716, 0.0014765286231872335, 0.0014750992460973616, 0.0014736883262370156, 0.0014722954100107476, 0.001470920060137152, 0.0014695618548805746, 0.0014682203873273578, 0.0014668952647035635, 0.0014655861077313675, 0.0014642925500215275, 0.0014630142374995273, 0.0014617508278631955, 0.0014605019900697464, 0.001459267403850359, 0.0014580467592505393, 0.0014568397561946468, 0.0014556461040730762, 0.0014544655213507042, 0.0014532977351952975, 0.0014521424811246777, 0.0014509995026715252, 0.0014498685510647706, 0.0014487493849266056, 0.0014476417699842026, 0.0014465454787952986, 0.0014454602904868516, 0.0014443859905060312, 0.001443322370382854, 0.0014422692275038174, 0.0014412263648959259, 0.0014401935910205463, 0.0014391707195765622, 0.0014381575693123239, 0.0014371539638459354, 0.001436159731493436, 0.0014351747051044622, 0.0014341987219050104, 0.0014332316233469302, 0.001432273254963809, 0.0014313234662329246, 0.0014303821104429668, 0.0014294490445672316, 0.0014285241291420324, 0.0014276072281500637, 0.0014266982089084811, 0.001425796941961471, 0.0014249033009770976, 0.0014240171626482205, 0.0014231384065972984, 0.0014222669152848917, 0.0014214025739216999, 0.0014205452703839616, 0.0014196948951320787, 0.001418851341132303, 0.0014180145037813623, 0.001417184280833884, 0.001416360572332502, 0.0014155432805405188, 0.0014147323098770241, 0.0014145708660166746]","[16.0, 8.953057525735152e-06, 2.2618833951036665e-05, 3.4858043148605576e-05, 5.05012977070793e-05, 7.782790299202248e-05, 8.27882275580011e-05, 9.964794623110138e-05, 9.964794623110138e-05, 0.00012758551632946206, 0.0001443669851764812, 0.0001737671405796618, 0.00016335573980926502, 0.00025174867277288475, 0.0002224849702424753, 0.0001848421070510764, 0.00023666494453226047, 0.0002677937552947131, 0.0003223296175768086, 0.0003647260007357621, 0.0003223296175768086, 0.0003879716397899993, 0.0003647260007357621, 0.0003428731432140421, 0.00043900199318724724, 0.00043900199318724724, 0.0005284041983121468, 0.0005284041983121468, 0.0006765490411208203, 0.0003647260007357621, 0.0004967444273161115, 0.0007196685740870995, 0.0004669815774700653, 0.00041269882864860955, 0.0005979058067056204, 0.0007655363100811292, 0.0005979058067056204, 0.0005620817898299683, 0.0007196685740870995, 0.0006360130503435115, 0.0007196685740870995, 0.0007655363100811292, 0.0005620817898299683, 0.0007655363100811292, 0.0005979058067056204, 0.0007655363100811292, 0.0007196685740870995, 0.0006765490411208203, 0.0011090862713139026, 0.0008662281762778711, 0.0009801641587688596, 0.0011090862713139026, 0.0007655363100811292, 0.0012549656567344947, 0.0010426344575758478, 0.0014200327245212918, 0.0014200327245212918, 0.0016068112524755568, 0.001179773359952946, 0.001510537838203444, 0.0013349502989674698, 0.0017092206072459447, 0.001510537838203444, 0.0014200327245212918, 0.001818156973778498, 0.0019340363480790394, 0.001818156973778498, 0.002057301239461959, 0.002327900423853803, 0.0016068112524755568, 0.0026340918283780184, 0.0019340363480790394, 0.0019340363480790394, 0.002801974424504067, 0.002327900423853803, 0.002057301239461959, 0.0021884223603633847, 0.003170521324400895, 0.002980556938445577, 0.002980556938445577, 0.0038161940142650993, 0.0026340918283780184, 0.002980556938445577, 0.0024762680557142897, 0.0026340918283780184, 0.004059417333791517, 0.002980556938445577, 0.002980556938445577, 0.002980556938445577, 0.002801974424504067, 0.003372593000596473, 0.004059417333791517, 0.004059417333791517, 0.0045933571373359796, 0.003587543619446129, 0.004318142376485131, 0.004059417333791517, 0.004318142376485131, 0.0038161940142650993, 0.004318142376485131, 0.006255996435794018, 0.004318142376485131, 0.00519752665375966, 0.006255996435794018, 0.004059417333791517, 0.0045933571373359796, 0.00519752665375966, 0.0045933571373359796, 0.00519752665375966, 0.00686351166866672, 0.00552878855536345, 0.008261257208782206, 0.007300954336786124, 0.00552878855536345, 0.006255996435794018, 0.008009944666244748, 0.00686351166866672, 0.0070788548002437834, 0.006255996435794018, 0.00552878855536345, 0.006654719408046329, 0.007530022260945431, 0.0070788548002437834, 0.008261257208782206, 0.0070788548002437834, 0.0070788548002437834, 0.00552878855536345, 0.007300954336786124, 0.0070788548002437834, 0.007300954336786124, 0.009347869815564258, 0.013130932309945564, 0.009347869815564258, 0.00776627720634308, 0.00776627720634308, 0.009347869815564258, 0.009347869815564258, 0.007300954336786124, 0.008787784527432828, 0.011968664103055214, 0.012344181729187052, 0.008520454698927704, 0.010255634608295545, 0.010255634608295545, 0.010577405820974124, 0.008787784527432828, 0.008261257208782206, 0.012344181729187052, 0.009063501846950324, 0.010909272626686497, 0.011251551775330382, 0.009347869815564258]"
