last_val_loss,dataset,ul2,causal_denoisers,noncausal_masking,causal_divider,s_divider,r_divider,x_divider,randomize_denoiser_settings,randomize_mask_width,no_special_tokens,alternate_denoisers,progressive_tasks,model_scale,depth,width,num_params,num_non_embedding_params,num_heads,lr_mult,linear_value,seed,run_num,max_epochs,max_steps,max_tokens,max_time_seconds,gpu_capacity_scalar,train_loss_causal,train_pplx_causal,train_acc_causal,train_loss_s,train_pplx_s,train_loss_r,train_pplx_r,train_loss_x,train_pplx_x,train_acc_x_causal,train_acc_r_causal,train_acc_s_causal,train_acc_x_masked,train_acc_r_masked,train_acc_s_masked,val_loss_causal,val_pplx_causal,val_acc_causal,val_loss_s,val_pplx_s,val_loss_r,val_pplx_r,val_loss_x,val_pplx_x,grad_norm,cumulative_time,tokens_seen,epoch,batch_size,seq_length,learning_rate,weight_decay
2.67578125,fineweb,true,true,false,1000.0,1000.0,1.0,1000.0,true,true,true,true,false,28.980368741954965,43,2048,1333379115,1127309355,32,0.9,false,1600,1,1.0,1000000000,1000000000000,1000000000,1.9,"[10.9375, 7.59375, 7.1875, 7.09375, 6.4375, 6.46875, 6.375, 6.3125, 6.40625, 6.28125, 6.125, 6.15625, 6.03125, 6.09375, 6.03125, 5.84375, 5.96875, 6.03125, 5.90625, 5.84375, 5.84375, 5.78125, 5.5, 5.6875, 5.5625, 5.46875, 5.5, 5.46875, 5.46875, 5.46875, 5.40625, 5.40625, 5.25, 5.5, 5.28125, 5.28125, 5.1875, 5.125, 5.3125, 5.1875, 5.1875, 5.3125, 5.15625, 5.28125, 5.0625, 5.0, 5.28125, 5.0625, 4.9375, 5.25, 5.125, 5.09375, 5.0, 5.0, 4.9375, 5.09375, 4.8125, 5.0, 4.9375, 4.71875, 4.90625, 4.84375, 4.84375, 4.75, 5.03125, 5.0, 4.78125, 4.65625, 4.625, 4.8125, 4.78125, 4.625, 4.65625, 4.71875, 4.5625, 4.59375, 4.625, 4.6875, 4.625, 4.5, 4.65625, 4.34375, 4.46875, 4.34375, 4.5625, 4.53125, 4.65625, 4.625, 4.4375, 4.5625, 4.65625, 4.59375, 4.46875, 4.6875, 4.40625, 4.375, 4.46875, 4.3125, 4.1875, 4.46875, 4.34375, 4.46875, 4.3125, 4.46875, 4.375, 4.1875, 4.28125, 4.1875, 4.21875, 4.53125, 4.375, 4.28125, 4.15625, 4.0625, 4.1875, 4.1875, 4.28125, 4.125, 4.34375, 4.40625, 4.03125, 4.3125, 4.09375, 4.34375, 4.3125, 4.03125, 4.15625, 3.96875, 4.125, 4.3125, 4.15625, 3.984375, 4.15625, 4.125, 3.84375, 4.125, 4.09375, 4.0625, 4.09375, 3.921875, 4.03125, 4.125, 3.984375, 4.21875, 3.96875, 4.0625, 4.03125, 4.03125, 4.0, 3.96875, 4.0, 4.09375, 4.09375, 4.03125, 4.03125, 4.0625, 4.25, 4.0625, 3.875, 4.0625, 4.0625, 4.125, 4.09375, 3.921875, 3.796875, 4.0, 3.90625, 3.703125, 3.859375, 4.03125, 3.78125, 4.0625, 3.890625, 4.09375, 3.921875, 3.90625, 3.59375, 3.859375, 4.0625, 3.6875, 3.734375, 3.765625, 3.859375, 3.8125, 3.75, 3.59375, 3.78125, 3.671875, 3.96875, 3.953125, 3.890625, 3.546875, 3.46875, 3.875, 3.90625, 3.8125, 3.71875, 3.796875, 3.625, 3.90625, 3.578125, 3.671875, 3.703125, 3.640625, 3.71875, 3.875, 3.515625, 3.859375, 3.59375, 3.578125, 3.734375, 3.796875, 3.75, 3.96875, 3.53125, 3.640625, 3.640625, 3.578125, 3.46875, 3.71875, 3.53125, 3.671875, 3.640625, 3.78125, 3.625, 3.71875, 3.484375, 3.703125, 3.734375, 3.625, 3.5625, 3.515625, 3.5625, 3.734375, 3.3125, 3.453125, 3.703125, 3.734375, 3.703125, 3.578125, 3.59375, 3.640625, 3.65625, 3.53125, 3.640625, 3.6875, 3.53125, 3.578125, 3.59375, 3.78125, 3.453125, 3.59375, 3.53125, 3.46875, 3.65625, 3.390625, 3.34375, 3.515625, 3.453125, 3.5, 3.4375, 3.578125, 3.515625, 3.5, 3.671875, 3.453125, 3.3125, 3.5, 3.515625, 3.25, 3.5625, 3.5, 3.5625, 3.5, 3.5625, 3.59375, 3.28125, 3.625, 3.53125, 3.703125, 3.4375, 3.59375, 3.5, 3.359375, 3.453125, 3.59375, 3.65625, 3.4375, 3.265625, 3.453125, 3.4375, 3.421875, 3.4375, 3.5, 3.46875, 3.390625, 3.3125, 3.421875, 3.53125, 3.3125, 3.5, 3.390625, 3.484375, 3.453125, 3.4375, 3.296875, 3.46875, 3.609375, 3.375, 3.4375, 3.421875, 3.515625, 3.453125, 3.171875, 3.703125, 3.390625, 3.484375, 3.359375, 3.515625, 3.4375, 3.21875, 3.53125, 3.546875, 3.53125, 3.421875, 3.484375, 3.375, 3.21875, 3.453125, 3.15625, 3.59375, 3.328125, 3.484375, 3.546875, 3.3125, 3.25, 3.203125, 3.34375, 3.359375, 3.359375, 3.296875, 3.4375, 3.28125, 3.40625, 3.125, 3.390625, 3.375, 3.515625, 3.359375, 3.296875, 3.46875, 3.140625, 3.28125, 3.4375, 3.34375, 3.015625, 3.328125, 3.421875, 3.28125, 3.375, 3.3125, 3.4375, 3.203125, 3.234375, 3.09375, 3.34375, 3.359375, 3.28125, 3.53125, 3.421875, 3.234375, 3.359375, 3.265625, 3.4375, 3.203125, 3.34375, 3.234375, 3.328125, 3.34375, 3.28125, 3.1875, 3.34375, 3.515625, 3.375, 3.203125, 3.421875, 3.34375, 3.390625, 3.1875, 3.1875, 3.265625, 3.21875, 3.015625, 3.375, 3.390625, 3.171875, 3.3125, 3.453125, 3.328125, 3.234375, 3.40625, 3.25, 3.34375, 3.296875, 3.328125, 3.390625, 3.3125, 3.15625, 3.390625, 3.015625, 3.25, 3.171875, 3.203125, 3.421875, 3.3125, 3.15625, 3.203125, 3.234375, 3.296875, 3.421875, 3.28125, 3.375, 2.96875, 3.3125, 3.34375, 3.234375, 3.140625, 3.265625, 3.140625, 3.203125, 3.265625, 3.234375, 3.28125, 3.40625, 3.34375, 3.296875, 3.40625, 3.3125, 3.328125, 3.203125, 3.296875, 3.03125, 3.265625, 3.28125, 3.25, 3.328125, 3.25, 3.171875, 3.609375, 3.328125, 3.25, 3.234375, 3.265625, 3.328125, 3.28125, 3.171875, 2.9375, 3.25, 3.203125, 3.265625, 3.265625, 3.34375, 3.21875, 3.25, 3.25, 3.203125, 3.15625, 3.28125, 3.265625, 3.25, 3.234375, 3.203125, 2.9375, 3.234375, 2.9375, 3.21875, 3.046875, 3.265625, 3.15625, 3.21875, 3.125, 3.015625, 3.078125, 3.296875, 3.1875, 3.34375, 2.90625, 3.234375, 3.203125, 3.09375, 3.328125, 3.265625, 3.0625, 2.984375, 3.21875, 3.125, 3.28125, 2.90625, 3.09375, 3.234375, 3.140625, 3.09375, 3.203125, 3.15625, 3.078125, 3.140625, 3.3125, 3.21875, 3.125, 3.1875, 3.203125, 3.0625, 3.28125, 2.921875, 3.25, 3.15625, 3.171875, 3.203125, 3.03125, 3.34375, 3.234375, 3.109375, 3.140625, 3.09375, 3.109375, 3.140625, 3.125, 3.28125, 3.265625, 3.21875, 3.03125, 3.125, 2.984375, 3.265625, 3.203125, 3.046875, 3.078125, 3.171875, 3.015625, 3.109375, 2.9375, 3.234375, 3.09375, 3.09375, 3.09375, 3.15625, 3.21875, 3.15625, 3.125, 3.21875, 2.96875, 3.265625, 3.09375, 3.171875, 3.234375, 3.21875, 3.265625, 3.078125, 3.421875, 3.3125, 3.0625, 2.734375, 3.21875, 3.09375, 3.34375, 3.234375, 3.171875, 3.125, 3.125, 3.25, 2.859375, 3.234375, 3.125, 3.015625, 3.3125, 3.15625, 3.140625, 3.1875, 3.328125, 3.0, 3.171875, 3.15625, 3.078125, 3.0625, 3.21875, 3.109375, 2.984375, 2.828125, 3.078125, 3.125, 3.078125, 3.109375, 2.859375, 3.265625, 3.28125, 3.171875, 3.296875, 3.0, 3.0, 3.109375, 3.0625, 3.03125, 3.109375, 3.125, 3.234375, 2.984375, 3.03125, 3.0, 3.015625, 2.9375, 3.28125, 3.234375, 3.015625, 3.015625, 2.9375, 3.03125, 3.015625, 3.21875, 3.0, 2.875, 3.015625, 2.9375, 3.25, 2.953125, 3.359375, 3.0625, 3.1875, 2.984375, 3.046875, 3.25, 2.984375, 3.0, 3.015625, 3.015625, 3.0625, 3.09375, 3.0625, 3.046875, 2.921875, 3.078125, 2.984375, 3.28125, 3.171875, 3.078125, 2.890625, 3.046875, 3.140625, 3.15625, 3.015625, 2.984375, 3.0625, 2.90625, 2.765625, 2.984375, 3.046875, 3.125, 2.984375, 3.140625, 2.953125, 2.96875, 3.21875, 3.09375, 2.984375, 3.09375, 2.75, 3.140625, 3.125, 3.015625, 3.109375, 3.140625, 2.9375, 3.109375, 3.046875, 2.890625, 2.953125, 3.125, 3.03125, 3.140625, 3.078125, 3.125, 3.140625, 3.015625, 2.953125, 3.140625, 3.03125, 3.1875, 3.21875, 2.953125, 3.03125, 3.0, 3.03125, 3.0625, 3.03125, 3.109375, 3.015625, 2.984375, 2.953125, 2.953125, 3.0, 3.0625, 3.171875, 3.296875, 2.96875, 3.203125, 2.984375, 2.828125, 3.046875, 2.84375, 2.984375, 2.90625, 3.0, 3.171875, 2.90625, 3.03125, 2.984375, 3.03125, 3.015625, 3.078125, 3.140625, 3.03125, 2.96875, 3.109375, 3.25, 3.03125, 2.984375, 2.90625, 3.0, 2.9375, 3.078125, 3.0, 2.953125, 3.1875, 3.015625, 3.125, 3.109375, 3.09375, 3.15625, 2.90625, 3.078125, 2.921875, 2.96875, 3.0, 3.03125, 2.859375, 2.984375, 3.078125, 3.28125, 3.0625, 3.015625, 2.796875, 3.15625, 2.953125, 2.828125, 2.78125, 3.03125, 3.265625, 2.953125, 2.953125, 3.125, 2.984375, 2.890625, 2.96875, 2.984375, 2.953125, 2.96875, 3.03125, 2.859375, 2.96875, 3.0625, 3.0, 3.140625, 2.984375, 3.015625, 3.0, 2.96875, 2.90625, 2.828125, 3.09375, 3.109375, 2.921875, 2.96875, 2.90625, 2.96875, 3.109375, 2.921875, 3.03125, 3.03125, 3.1875, 3.109375, 3.0, 2.921875, 2.875, 2.890625, 2.96875, 3.15625, 3.0, 2.921875, 3.015625, 2.96875, 2.90625, 3.078125, 3.015625, 2.9375, 3.03125, 2.859375, 2.875, 2.828125, 3.109375, 3.046875, 3.15625, 3.078125, 3.03125, 2.984375, 2.90625, 2.984375, 2.984375, 3.1875, 2.96875, 3.015625, 2.859375, 3.046875, 3.15625, 2.875, 2.96875, 2.96875, 2.765625, 3.078125, 3.109375, 3.078125, 2.953125, 2.921875, 3.046875, 2.984375, 3.171875, 3.0, 3.015625, 2.90625, 2.96875, 2.765625, 3.09375, 2.96875, 2.90625, 2.90625, 3.140625, 3.03125, 2.859375, 2.890625, 3.15625, 2.859375, 3.0, 3.109375, 2.90625, 3.125, 3.0, 3.03125, 2.953125, 3.0, 3.03125, 3.09375, 3.0625, 3.0625, 3.015625, 2.953125, 2.828125, 2.859375, 2.703125, 3.03125, 3.046875, 3.046875, 3.03125, 3.046875, 2.984375, 3.015625, 2.921875, 2.984375, 2.96875, 2.921875, 2.953125, 2.984375, 2.921875, 3.09375, 2.984375, 3.0625, 2.890625, 3.125, 2.890625, 2.828125, 3.0, 2.828125, 2.90625, 3.0, 2.6875, 3.0625, 2.984375, 3.0, 2.8125, 2.921875, 2.859375, 3.09375, 2.90625, 2.96875, 3.25, 2.90625, 2.96875, 3.046875, 2.890625, 3.015625, 2.828125, 2.734375, 3.0, 2.9375, 3.0625, 2.921875, 2.90625, 3.078125, 2.875, 3.078125, 2.6875, 2.953125, 3.03125, 3.015625, 3.0, 3.015625, 2.953125, 3.03125, 2.953125, 2.78125, 2.875, 2.8125, 3.125, 3.0625, 2.875, 2.765625, 2.984375, 3.0625, 2.96875, 2.765625, 2.546875, 2.953125, 3.0, 2.90625, 2.875, 2.984375, 2.828125, 3.0, 2.96875, 2.921875, 2.96875, 3.140625, 2.75, 2.96875, 2.640625, 2.859375, 2.984375, 2.953125, 2.984375, 2.9375, 2.78125, 3.078125, 2.953125, 2.96875, 2.921875, 2.8125, 2.875, 2.921875, 2.84375, 3.0, 2.953125, 3.15625, 3.03125, 3.03125, 3.03125, 3.046875, 2.890625, 2.75, 3.0, 3.046875, 3.125, 3.0, 3.0, 2.921875, 2.8125, 2.8125, 2.921875, 2.9375, 2.765625, 2.75, 2.8125, 2.765625, 3.03125, 3.09375, 3.125, 2.75, 2.890625, 3.0, 2.90625, 2.9375, 2.921875, 3.078125, 2.921875, 2.890625, 3.015625, 3.0, 2.875, 2.6875, 2.734375, 3.078125, 2.890625, 2.890625, 2.96875, 2.859375, 3.078125, 2.828125, 2.890625, 2.65625, 3.03125, 2.734375, 2.796875, 2.921875, 2.875, 2.859375, 2.859375, 2.84375, 3.046875, 2.96875, 2.828125, 3.109375, 2.8125, 2.875, 2.703125, 2.78125, 2.921875, 3.046875, 2.84375, 2.6875, 2.875, 2.5625, 3.0, 3.03125, 2.75, 2.890625, 2.859375, 2.765625, 2.828125, 2.765625, 2.828125, 2.90625, 2.8125, 2.953125, 2.953125, 2.875, 2.875, 2.921875, 2.859375, 3.015625, 2.828125, 2.890625, 2.84375, 2.8125, 2.859375, 2.859375, 2.875, 3.015625, 2.875, 2.65625, 2.859375, 3.015625, 2.78125, 2.859375, 2.921875, 2.75, 2.6875, 2.71875, 2.796875, 2.984375, 2.640625, 2.953125, 2.65625, 3.078125, 2.921875, 2.875, 2.859375, 3.0625, 2.96875, 2.890625, 2.703125, 2.859375, 2.65625, 2.75, 2.703125, 3.015625, 2.96875, 2.9375, 2.90625, 2.90625, 3.015625, 2.84375, 2.875, 2.890625, 3.015625, 2.84375, 2.875, 2.859375, 2.859375, 2.921875, 2.875, 2.734375, 2.890625, 2.890625, 2.96875, 2.78125, 2.84375, 2.984375, 2.890625, 2.828125, 2.90625, 2.890625, 2.9375, 2.859375, 3.0, 2.6875, 2.875, 2.859375, 2.8125, 3.0, 2.8125, 3.078125, 2.9375, 3.015625, 2.84375, 2.671875, 2.984375, 3.0625, 2.9375, 2.703125, 3.140625, 2.90625, 2.875, 2.765625, 2.8125, 2.96875, 2.953125, 2.96875, 2.953125, 2.921875, 2.671875, 2.90625, 2.953125, 2.8125, 2.703125, 2.8125, 2.765625, 2.9375, 2.71875, 3.1875, 2.703125, 2.890625, 3.0625, 3.03125, 2.875, 2.9375, 2.765625, 2.84375, 2.921875, 2.859375, 2.859375, 2.828125, 2.875, 2.875, 2.71875, 2.859375, 2.78125, 2.734375, 2.859375, 2.796875, 2.96875, 2.875, 2.859375, 2.9375, 2.859375, 2.78125, 2.8125, 2.65625, 2.796875, 3.0, 3.0, 3.125, 2.8125, 2.859375, 2.890625, 2.828125, 2.765625, 2.703125, 2.84375, 2.875, 2.8125, 2.828125, 2.796875, 2.984375, 2.96875, 2.75, 3.078125, 2.9375, 2.734375, 2.859375, 2.703125, 2.9375, 2.953125, 2.9375, 3.03125, 2.6875, 2.984375, 3.015625, 2.875, 2.890625, 2.828125, 2.953125, 2.890625, 2.90625, 2.875, 2.84375, 2.78125, 2.671875, 2.703125, 2.921875, 3.046875, 2.859375, 2.875, 3.0, 2.8125, 2.734375, 2.921875, 2.8125, 2.75, 2.921875, 2.90625, 2.75, 2.8125, 2.828125, 2.90625, 2.859375, 3.0625, 2.734375, 2.609375, 2.9375, 2.9375, 3.046875, 2.859375, 2.796875, 2.921875, 2.890625, 2.75, 2.8125, 2.828125, 2.9375, 2.734375, 2.921875, 2.796875, 2.765625, 2.828125, 2.796875, 2.953125, 2.84375, 2.921875, 2.96875, 2.890625, 2.84375, 2.796875, 2.8125, 2.828125, 2.5, 2.71875, 2.734375, 2.828125, 2.8125, 2.828125, 2.703125, 2.796875, 2.875, 3.078125, 2.84375, 2.734375, 2.75, 2.765625, 2.640625, 2.703125, 2.875, 2.796875, 2.984375, 3.09375, 2.765625, 2.796875, 2.921875, 2.875, 2.671875, 2.78125, 2.796875, 3.015625, 2.765625, 2.625, 2.796875, 2.796875, 2.828125, 2.875, 2.9375, 2.890625, 2.875, 2.84375, 2.90625, 2.65625, 2.953125, 2.84375, 2.671875, 2.90625, 2.84375, 2.9375, 2.828125, 2.859375, 2.734375, 2.859375, 2.6875, 2.78125, 2.890625, 2.921875, 3.109375, 2.625, 3.0, 2.828125, 2.796875, 2.859375, 2.78125, 2.90625, 2.84375, 2.78125, 2.765625, 2.859375, 2.828125, 2.75, 2.609375, 2.640625, 2.859375, 2.640625, 2.765625, 2.828125, 2.78125, 2.75, 2.71875, 2.6875, 2.53125, 2.65625, 2.84375, 2.671875, 2.65625, 2.984375, 2.5625, 2.796875, 2.796875, 2.96875, 2.53125, 2.828125, 2.890625, 2.765625, 2.84375, 2.6875, 2.796875, 2.671875, 2.71875, 2.78125, 2.578125, 2.625, 2.765625, 2.859375, 2.671875, 2.828125, 2.84375, 2.5625, 2.8125, 2.765625, 2.828125, 2.75, 2.953125, 2.734375, 2.671875, 2.78125, 2.84375, 2.8125, 2.765625, 2.796875, 2.765625, 2.6875, 2.859375, 3.125, 2.828125, 2.734375, 2.75, 2.765625, 2.6875, 2.8125, 2.84375, 2.9375, 2.828125, 2.84375, 2.90625, 2.5625, 2.671875, 2.875, 2.859375, 2.875, 2.734375, 2.65625, 2.75, 2.71875, 2.828125, 2.875, 2.9375, 2.78125, 2.796875, 2.65625, 2.953125, 2.78125, 2.71875, 2.84375, 3.078125, 2.71875, 2.5625, 2.84375, 3.140625, 2.859375, 2.84375, 2.734375, 2.625, 2.75, 2.75, 2.796875, 2.875, 2.75, 2.859375, 2.609375, 2.75, 2.78125, 2.796875, 2.625, 2.6875, 2.796875, 2.84375, 2.65625, 2.78125, 2.796875, 2.734375, 2.859375, 2.890625, 2.609375, 2.734375, 2.75, 2.703125, 2.90625, 2.859375, 2.75, 2.703125, 2.828125, 2.703125, 2.75, 2.65625, 2.78125, 2.8125, 2.796875, 2.75, 2.65625, 2.765625, 2.640625, 2.6875, 2.546875, 2.8125, 2.875, 2.46875, 2.796875, 2.734375, 2.6875, 2.671875, 3.03125, 2.859375, 2.953125, 2.671875, 2.765625, 2.75, 2.765625, 2.765625, 2.6875, 2.828125, 2.8125, 2.765625, 2.796875, 2.75, 2.6875, 2.71875, 2.640625, 2.734375, 2.890625, 2.921875, 2.796875, 2.8125, 2.84375, 2.8125, 2.671875, 2.765625, 2.75, 2.6875, 2.71875, 2.65625, 2.703125, 2.734375, 2.75, 2.890625, 2.796875, 2.75, 2.78125, 2.8125, 2.75, 2.796875, 2.71875, 2.8125, 2.640625, 2.609375, 2.625, 2.703125, 2.796875, 2.625, 2.671875, 2.71875, 2.8125, 2.59375, 2.796875, 2.625, 2.65625, 2.765625, 2.8125, 2.90625, 2.828125, 2.59375, 2.71875, 2.75, 2.671875, 2.796875, 2.8125, 2.828125, 2.6875, 2.59375, 2.671875, 2.78125, 2.90625, 2.796875, 2.65625, 2.796875, 2.84375, 2.734375, 2.984375, 2.640625, 2.6875, 2.75, 2.875, 2.578125, 2.859375, 2.578125, 2.859375, 2.546875, 2.796875, 2.703125, 2.71875, 2.875, 2.65625, 2.703125, 2.90625, 2.75, 2.828125, 2.921875, 2.703125, 2.875, 2.671875, 2.703125, 2.59375, 2.65625, 2.71875, 2.78125, 2.578125, 2.609375, 2.671875, 2.59375, 2.671875, 2.671875, 2.78125, 2.75, 2.828125, 2.6875, 2.78125, 2.78125, 2.671875, 2.953125, 2.859375, 2.640625, 2.84375, 2.609375, 2.78125, 2.671875, 2.859375, 2.765625, 2.6875, 2.609375, 2.703125, 2.90625, 2.703125, 2.65625, 2.6875, 3.0, 2.671875, 2.765625, 2.78125, 2.84375, 2.734375, 2.515625, 2.75, 2.765625, 2.8125, 2.828125, 2.65625, 2.90625, 2.546875, 2.65625, 2.703125, 2.640625, 2.703125, 2.53125, 2.796875, 2.71875, 2.828125, 2.59375, 2.96875, 2.828125, 2.734375, 2.46875, 2.71875, 2.890625, 2.671875, 2.796875, 2.625, 2.625, 2.6875, 2.53125, 2.703125, 2.546875, 2.703125, 2.96875, 2.71875, 2.703125, 2.734375, 2.796875, 2.671875, 2.78125, 2.640625, 2.796875, 2.703125, 2.71875, 2.734375, 2.78125, 2.6875, 2.75, 2.546875, 2.640625, 2.75, 2.84375, 2.796875, 2.734375, 2.640625, 2.5, 2.546875, 2.296875, 2.625, 2.75, 2.828125, 2.6875, 2.625, 2.71875, 2.828125, 2.625, 2.40625, 2.46875, 2.65625, 2.859375, 2.546875, 2.703125, 2.75, 2.796875, 2.703125, 2.765625, 2.78125, 2.59375, 2.734375, 2.609375, 2.78125, 2.75, 2.609375, 2.65625, 2.671875, 2.71875, 2.6875, 2.671875, 2.796875, 2.859375, 2.703125, 2.59375, 2.828125, 2.578125, 2.796875, 2.953125, 2.4375, 2.71875, 2.734375, 2.625, 2.71875, 2.765625, 2.84375, 2.671875, 2.828125, 2.484375, 2.671875, 2.53125, 2.796875, 2.515625, 2.625, 2.59375, 2.453125, 2.796875, 2.640625, 2.625, 2.703125, 2.6875, 2.671875, 2.734375, 2.65625, 2.734375, 2.671875, 2.5, 2.6875, 2.71875, 2.609375, 2.546875, 2.65625, 2.53125, 2.390625, 2.609375, 2.734375, 2.5, 2.59375, 2.5625, 2.625, 2.765625, 2.625, 2.671875, 2.828125, 2.6875, 2.609375, 2.65625, 2.671875, 2.625, 2.59375, 2.578125, 2.6875, 2.6875, 2.40625, 2.75, 2.671875, 2.78125, 2.65625, 2.578125, 2.515625, 2.609375, 2.71875, 2.609375, 2.875, 2.65625, 2.609375, 2.578125, 2.71875, 2.46875, 2.796875, 2.625, 2.53125, 2.609375, 2.578125, 2.671875, 2.546875, 2.546875, 2.625, 2.671875, 2.359375, 2.75, 2.609375, 2.59375, 2.59375, 2.6875, 2.640625, 2.75, 2.546875, 2.609375, 2.828125, 2.796875, 2.46875, 2.734375, 2.59375, 2.53125, 2.5625, 2.5, 2.46875, 2.625, 2.796875, 2.609375, 2.6875, 2.671875, 2.625, 2.734375, 2.6875, 2.65625, 2.53125, 2.703125, 2.625, 2.6875, 2.640625, 2.546875, 2.796875, 2.546875, 2.6875, 2.96875, 2.609375, 2.46875, 2.640625, 2.515625, 2.609375, 2.578125, 2.453125, 2.40625, 2.859375, 2.53125, 2.53125, 2.671875, 2.5, 2.3125, 2.6875, 2.578125, 2.46875, 2.65625, 2.546875, 2.484375, 2.5, 2.5625, 2.625, 2.65625, 2.59375, 2.578125, 2.828125, 2.640625, 2.515625, 2.609375, 2.609375, 2.46875, 2.703125, 2.6875, 2.578125, 2.71875, 2.71875, 2.671875, 2.640625, 2.53125, 2.765625, 2.46875, 2.46875, 2.421875, 2.703125, 2.421875, 2.625, 2.5625, 2.390625, 2.578125, 2.5625, 2.671875, 2.453125, 2.625, 2.609375, 2.546875, 2.640625, 2.625, 2.5, 2.703125, 2.578125, 2.59375, 2.53125, 2.53125, 2.546875, 2.28125, 2.703125, 2.53125, 2.46875, 2.546875, 2.515625, 2.640625, 2.6875, 2.546875, 2.546875, 2.59375, 2.65625, 2.609375, 2.65625, 2.609375, 2.609375, 2.71875, 2.8125, 2.546875, 2.625, 2.546875, 2.59375, 2.640625, 2.640625, 2.578125, 2.6875, 2.703125, 2.6875, 2.609375, 2.609375, 2.640625, 2.53125, 2.625, 2.578125, 2.59375, 2.59375, 2.5625, 2.625, 2.71875, 2.578125, 2.4375, 2.671875, 2.6875, 2.328125, 2.703125, 2.546875, 2.59375, 2.53125, 2.625, 2.546875, 2.640625, 2.53125, 2.578125, 2.46875]","[56320.0, 1992.0, 1328.0, 1208.0, 624.0, 644.0, 588.0, 552.0, 608.0, 536.0, 458.0, 472.0, 416.0, 444.0, 416.0, 346.0, 392.0, 416.0, 368.0, 346.0, 346.0, 324.0, 245.0, 296.0, 260.0, 237.0, 245.0, 237.0, 237.0, 237.0, 223.0, 223.0, 191.0, 245.0, 197.0, 197.0, 179.0, 168.0, 203.0, 179.0, 179.0, 203.0, 174.0, 197.0, 158.0, 149.0, 197.0, 158.0, 140.0, 191.0, 168.0, 163.0, 149.0, 149.0, 140.0, 163.0, 123.0, 149.0, 140.0, 112.0, 135.0, 127.0, 127.0, 115.5, 153.0, 149.0, 119.5, 105.5, 102.0, 123.0, 119.5, 102.0, 105.5, 112.0, 96.0, 99.0, 102.0, 108.5, 102.0, 90.0, 105.5, 77.0, 87.5, 77.0, 96.0, 93.0, 105.5, 102.0, 84.5, 96.0, 105.5, 99.0, 87.5, 108.5, 82.0, 79.5, 87.5, 74.5, 66.0, 87.5, 77.0, 87.5, 74.5, 87.5, 79.5, 66.0, 72.5, 66.0, 68.0, 93.0, 79.5, 72.5, 64.0, 58.25, 66.0, 66.0, 72.5, 62.0, 77.0, 82.0, 56.25, 74.5, 60.0, 77.0, 74.5, 56.25, 64.0, 53.0, 62.0, 74.5, 64.0, 53.75, 64.0, 62.0, 46.75, 62.0, 60.0, 58.25, 60.0, 50.5, 56.25, 62.0, 53.75, 68.0, 53.0, 58.25, 56.25, 56.25, 54.75, 53.0, 54.75, 60.0, 60.0, 56.25, 56.25, 58.25, 70.0, 58.25, 48.25, 58.25, 58.25, 62.0, 60.0, 50.5, 44.5, 54.75, 49.75, 40.5, 47.5, 56.25, 44.0, 58.25, 49.0, 60.0, 50.5, 49.75, 36.5, 47.5, 58.25, 40.0, 42.0, 43.25, 47.5, 45.25, 42.5, 36.5, 44.0, 39.25, 53.0, 52.25, 49.0, 34.75, 32.0, 48.25, 49.75, 45.25, 41.25, 44.5, 37.5, 49.75, 35.75, 39.25, 40.5, 38.25, 41.25, 48.25, 33.75, 47.5, 36.5, 35.75, 42.0, 44.5, 42.5, 53.0, 34.25, 38.25, 38.25, 35.75, 32.0, 41.25, 34.25, 39.25, 38.25, 44.0, 37.5, 41.25, 32.5, 40.5, 42.0, 37.5, 35.25, 33.75, 35.25, 42.0, 27.5, 31.625, 40.5, 42.0, 40.5, 35.75, 36.5, 38.25, 38.75, 34.25, 38.25, 40.0, 34.25, 35.75, 36.5, 44.0, 31.625, 36.5, 34.25, 32.0, 38.75, 29.75, 28.375, 33.75, 31.625, 33.25, 31.125, 35.75, 33.75, 33.25, 39.25, 31.625, 27.5, 33.25, 33.75, 25.75, 35.25, 33.25, 35.25, 33.25, 35.25, 36.5, 26.625, 37.5, 34.25, 40.5, 31.125, 36.5, 33.25, 28.75, 31.625, 36.5, 38.75, 31.125, 26.25, 31.625, 31.125, 30.625, 31.125, 33.25, 32.0, 29.75, 27.5, 30.625, 34.25, 27.5, 33.25, 29.75, 32.5, 31.625, 31.125, 27.0, 32.0, 37.0, 29.25, 31.125, 30.625, 33.75, 31.625, 23.875, 40.5, 29.75, 32.5, 28.75, 33.75, 31.125, 25.0, 34.25, 34.75, 34.25, 30.625, 32.5, 29.25, 25.0, 31.625, 23.5, 36.5, 27.875, 32.5, 34.75, 27.5, 25.75, 24.625, 28.375, 28.75, 28.75, 27.0, 31.125, 26.625, 30.125, 22.75, 29.75, 29.25, 33.75, 28.75, 27.0, 32.0, 23.125, 26.625, 31.125, 28.375, 20.375, 27.875, 30.625, 26.625, 29.25, 27.5, 31.125, 24.625, 25.375, 22.125, 28.375, 28.75, 26.625, 34.25, 30.625, 25.375, 28.75, 26.25, 31.125, 24.625, 28.375, 25.375, 27.875, 28.375, 26.625, 24.25, 28.375, 33.75, 29.25, 24.625, 30.625, 28.375, 29.75, 24.25, 24.25, 26.25, 25.0, 20.375, 29.25, 29.75, 23.875, 27.5, 31.625, 27.875, 25.375, 30.125, 25.75, 28.375, 27.0, 27.875, 29.75, 27.5, 23.5, 29.75, 20.375, 25.75, 23.875, 24.625, 30.625, 27.5, 23.5, 24.625, 25.375, 27.0, 30.625, 26.625, 29.25, 19.5, 27.5, 28.375, 25.375, 23.125, 26.25, 23.125, 24.625, 26.25, 25.375, 26.625, 30.125, 28.375, 27.0, 30.125, 27.5, 27.875, 24.625, 27.0, 20.75, 26.25, 26.625, 25.75, 27.875, 25.75, 23.875, 37.0, 27.875, 25.75, 25.375, 26.25, 27.875, 26.625, 23.875, 18.875, 25.75, 24.625, 26.25, 26.25, 28.375, 25.0, 25.75, 25.75, 24.625, 23.5, 26.625, 26.25, 25.75, 25.375, 24.625, 18.875, 25.375, 18.875, 25.0, 21.0, 26.25, 23.5, 25.0, 22.75, 20.375, 21.75, 27.0, 24.25, 28.375, 18.25, 25.375, 24.625, 22.125, 27.875, 26.25, 21.375, 19.75, 25.0, 22.75, 26.625, 18.25, 22.125, 25.375, 23.125, 22.125, 24.625, 23.5, 21.75, 23.125, 27.5, 25.0, 22.75, 24.25, 24.625, 21.375, 26.625, 18.625, 25.75, 23.5, 23.875, 24.625, 20.75, 28.375, 25.375, 22.375, 23.125, 22.125, 22.375, 23.125, 22.75, 26.625, 26.25, 25.0, 20.75, 22.75, 19.75, 26.25, 24.625, 21.0, 21.75, 23.875, 20.375, 22.375, 18.875, 25.375, 22.125, 22.125, 22.125, 23.5, 25.0, 23.5, 22.75, 25.0, 19.5, 26.25, 22.125, 23.875, 25.375, 25.0, 26.25, 21.75, 30.625, 27.5, 21.375, 15.4375, 25.0, 22.125, 28.375, 25.375, 23.875, 22.75, 22.75, 25.75, 17.5, 25.375, 22.75, 20.375, 27.5, 23.5, 23.125, 24.25, 27.875, 20.125, 23.875, 23.5, 21.75, 21.375, 25.0, 22.375, 19.75, 16.875, 21.75, 22.75, 21.75, 22.375, 17.5, 26.25, 26.625, 23.875, 27.0, 20.125, 20.125, 22.375, 21.375, 20.75, 22.375, 22.75, 25.375, 19.75, 20.75, 20.125, 20.375, 18.875, 26.625, 25.375, 20.375, 20.375, 18.875, 20.75, 20.375, 25.0, 20.125, 17.75, 20.375, 18.875, 25.75, 19.125, 28.75, 21.375, 24.25, 19.75, 21.0, 25.75, 19.75, 20.125, 20.375, 20.375, 21.375, 22.125, 21.375, 21.0, 18.625, 21.75, 19.75, 26.625, 23.875, 21.75, 18.0, 21.0, 23.125, 23.5, 20.375, 19.75, 21.375, 18.25, 15.875, 19.75, 21.0, 22.75, 19.75, 23.125, 19.125, 19.5, 25.0, 22.125, 19.75, 22.125, 15.625, 23.125, 22.75, 20.375, 22.375, 23.125, 18.875, 22.375, 21.0, 18.0, 19.125, 22.75, 20.75, 23.125, 21.75, 22.75, 23.125, 20.375, 19.125, 23.125, 20.75, 24.25, 25.0, 19.125, 20.75, 20.125, 20.75, 21.375, 20.75, 22.375, 20.375, 19.75, 19.125, 19.125, 20.125, 21.375, 23.875, 27.0, 19.5, 24.625, 19.75, 16.875, 21.0, 17.25, 19.75, 18.25, 20.125, 23.875, 18.25, 20.75, 19.75, 20.75, 20.375, 21.75, 23.125, 20.75, 19.5, 22.375, 25.75, 20.75, 19.75, 18.25, 20.125, 18.875, 21.75, 20.125, 19.125, 24.25, 20.375, 22.75, 22.375, 22.125, 23.5, 18.25, 21.75, 18.625, 19.5, 20.125, 20.75, 17.5, 19.75, 21.75, 26.625, 21.375, 20.375, 16.375, 23.5, 19.125, 16.875, 16.125, 20.75, 26.25, 19.125, 19.125, 22.75, 19.75, 18.0, 19.5, 19.75, 19.125, 19.5, 20.75, 17.5, 19.5, 21.375, 20.125, 23.125, 19.75, 20.375, 20.125, 19.5, 18.25, 16.875, 22.125, 22.375, 18.625, 19.5, 18.25, 19.5, 22.375, 18.625, 20.75, 20.75, 24.25, 22.375, 20.125, 18.625, 17.75, 18.0, 19.5, 23.5, 20.125, 18.625, 20.375, 19.5, 18.25, 21.75, 20.375, 18.875, 20.75, 17.5, 17.75, 16.875, 22.375, 21.0, 23.5, 21.75, 20.75, 19.75, 18.25, 19.75, 19.75, 24.25, 19.5, 20.375, 17.5, 21.0, 23.5, 17.75, 19.5, 19.5, 15.875, 21.75, 22.375, 21.75, 19.125, 18.625, 21.0, 19.75, 23.875, 20.125, 20.375, 18.25, 19.5, 15.875, 22.125, 19.5, 18.25, 18.25, 23.125, 20.75, 17.5, 18.0, 23.5, 17.5, 20.125, 22.375, 18.25, 22.75, 20.125, 20.75, 19.125, 20.125, 20.75, 22.125, 21.375, 21.375, 20.375, 19.125, 16.875, 17.5, 14.9375, 20.75, 21.0, 21.0, 20.75, 21.0, 19.75, 20.375, 18.625, 19.75, 19.5, 18.625, 19.125, 19.75, 18.625, 22.125, 19.75, 21.375, 18.0, 22.75, 18.0, 16.875, 20.125, 16.875, 18.25, 20.125, 14.6875, 21.375, 19.75, 20.125, 16.625, 18.625, 17.5, 22.125, 18.25, 19.5, 25.75, 18.25, 19.5, 21.0, 18.0, 20.375, 16.875, 15.4375, 20.125, 18.875, 21.375, 18.625, 18.25, 21.75, 17.75, 21.75, 14.6875, 19.125, 20.75, 20.375, 20.125, 20.375, 19.125, 20.75, 19.125, 16.125, 17.75, 16.625, 22.75, 21.375, 17.75, 15.875, 19.75, 21.375, 19.5, 15.875, 12.75, 19.125, 20.125, 18.25, 17.75, 19.75, 16.875, 20.125, 19.5, 18.625, 19.5, 23.125, 15.625, 19.5, 14.0, 17.5, 19.75, 19.125, 19.75, 18.875, 16.125, 21.75, 19.125, 19.5, 18.625, 16.625, 17.75, 18.625, 17.25, 20.125, 19.125, 23.5, 20.75, 20.75, 20.75, 21.0, 18.0, 15.625, 20.125, 21.0, 22.75, 20.125, 20.125, 18.625, 16.625, 16.625, 18.625, 18.875, 15.875, 15.625, 16.625, 15.875, 20.75, 22.125, 22.75, 15.625, 18.0, 20.125, 18.25, 18.875, 18.625, 21.75, 18.625, 18.0, 20.375, 20.125, 17.75, 14.6875, 15.4375, 21.75, 18.0, 18.0, 19.5, 17.5, 21.75, 16.875, 18.0, 14.25, 20.75, 15.4375, 16.375, 18.625, 17.75, 17.5, 17.5, 17.25, 21.0, 19.5, 16.875, 22.375, 16.625, 17.75, 14.9375, 16.125, 18.625, 21.0, 17.25, 14.6875, 17.75, 13.0, 20.125, 20.75, 15.625, 18.0, 17.5, 15.875, 16.875, 15.875, 16.875, 18.25, 16.625, 19.125, 19.125, 17.75, 17.75, 18.625, 17.5, 20.375, 16.875, 18.0, 17.25, 16.625, 17.5, 17.5, 17.75, 20.375, 17.75, 14.25, 17.5, 20.375, 16.125, 17.5, 18.625, 15.625, 14.6875, 15.1875, 16.375, 19.75, 14.0, 19.125, 14.25, 21.75, 18.625, 17.75, 17.5, 21.375, 19.5, 18.0, 14.9375, 17.5, 14.25, 15.625, 14.9375, 20.375, 19.5, 18.875, 18.25, 18.25, 20.375, 17.25, 17.75, 18.0, 20.375, 17.25, 17.75, 17.5, 17.5, 18.625, 17.75, 15.4375, 18.0, 18.0, 19.5, 16.125, 17.25, 19.75, 18.0, 16.875, 18.25, 18.0, 18.875, 17.5, 20.125, 14.6875, 17.75, 17.5, 16.625, 20.125, 16.625, 21.75, 18.875, 20.375, 17.25, 14.5, 19.75, 21.375, 18.875, 14.9375, 23.125, 18.25, 17.75, 15.875, 16.625, 19.5, 19.125, 19.5, 19.125, 18.625, 14.5, 18.25, 19.125, 16.625, 14.9375, 16.625, 15.875, 18.875, 15.1875, 24.25, 14.9375, 18.0, 21.375, 20.75, 17.75, 18.875, 15.875, 17.25, 18.625, 17.5, 17.5, 16.875, 17.75, 17.75, 15.1875, 17.5, 16.125, 15.4375, 17.5, 16.375, 19.5, 17.75, 17.5, 18.875, 17.5, 16.125, 16.625, 14.25, 16.375, 20.125, 20.125, 22.75, 16.625, 17.5, 18.0, 16.875, 15.875, 14.9375, 17.25, 17.75, 16.625, 16.875, 16.375, 19.75, 19.5, 15.625, 21.75, 18.875, 15.4375, 17.5, 14.9375, 18.875, 19.125, 18.875, 20.75, 14.6875, 19.75, 20.375, 17.75, 18.0, 16.875, 19.125, 18.0, 18.25, 17.75, 17.25, 16.125, 14.5, 14.9375, 18.625, 21.0, 17.5, 17.75, 20.125, 16.625, 15.4375, 18.625, 16.625, 15.625, 18.625, 18.25, 15.625, 16.625, 16.875, 18.25, 17.5, 21.375, 15.4375, 13.625, 18.875, 18.875, 21.0, 17.5, 16.375, 18.625, 18.0, 15.625, 16.625, 16.875, 18.875, 15.4375, 18.625, 16.375, 15.875, 16.875, 16.375, 19.125, 17.25, 18.625, 19.5, 18.0, 17.25, 16.375, 16.625, 16.875, 12.1875, 15.1875, 15.4375, 16.875, 16.625, 16.875, 14.9375, 16.375, 17.75, 21.75, 17.25, 15.4375, 15.625, 15.875, 14.0, 14.9375, 17.75, 16.375, 19.75, 22.125, 15.875, 16.375, 18.625, 17.75, 14.5, 16.125, 16.375, 20.375, 15.875, 13.8125, 16.375, 16.375, 16.875, 17.75, 18.875, 18.0, 17.75, 17.25, 18.25, 14.25, 19.125, 17.25, 14.5, 18.25, 17.25, 18.875, 16.875, 17.5, 15.4375, 17.5, 14.6875, 16.125, 18.0, 18.625, 22.375, 13.8125, 20.125, 16.875, 16.375, 17.5, 16.125, 18.25, 17.25, 16.125, 15.875, 17.5, 16.875, 15.625, 13.625, 14.0, 17.5, 14.0, 15.875, 16.875, 16.125, 15.625, 15.1875, 14.6875, 12.5625, 14.25, 17.25, 14.5, 14.25, 19.75, 13.0, 16.375, 16.375, 19.5, 12.5625, 16.875, 18.0, 15.875, 17.25, 14.6875, 16.375, 14.5, 15.1875, 16.125, 13.1875, 13.8125, 15.875, 17.5, 14.5, 16.875, 17.25, 13.0, 16.625, 15.875, 16.875, 15.625, 19.125, 15.4375, 14.5, 16.125, 17.25, 16.625, 15.875, 16.375, 15.875, 14.6875, 17.5, 22.75, 16.875, 15.4375, 15.625, 15.875, 14.6875, 16.625, 17.25, 18.875, 16.875, 17.25, 18.25, 13.0, 14.5, 17.75, 17.5, 17.75, 15.4375, 14.25, 15.625, 15.1875, 16.875, 17.75, 18.875, 16.125, 16.375, 14.25, 19.125, 16.125, 15.1875, 17.25, 21.75, 15.1875, 13.0, 17.25, 23.125, 17.5, 17.25, 15.4375, 13.8125, 15.625, 15.625, 16.375, 17.75, 15.625, 17.5, 13.625, 15.625, 16.125, 16.375, 13.8125, 14.6875, 16.375, 17.25, 14.25, 16.125, 16.375, 15.4375, 17.5, 18.0, 13.625, 15.4375, 15.625, 14.9375, 18.25, 17.5, 15.625, 14.9375, 16.875, 14.9375, 15.625, 14.25, 16.125, 16.625, 16.375, 15.625, 14.25, 15.875, 14.0, 14.6875, 12.75, 16.625, 17.75, 11.8125, 16.375, 15.4375, 14.6875, 14.5, 20.75, 17.5, 19.125, 14.5, 15.875, 15.625, 15.875, 15.875, 14.6875, 16.875, 16.625, 15.875, 16.375, 15.625, 14.6875, 15.1875, 14.0, 15.4375, 18.0, 18.625, 16.375, 16.625, 17.25, 16.625, 14.5, 15.875, 15.625, 14.6875, 15.1875, 14.25, 14.9375, 15.4375, 15.625, 18.0, 16.375, 15.625, 16.125, 16.625, 15.625, 16.375, 15.1875, 16.625, 14.0, 13.625, 13.8125, 14.9375, 16.375, 13.8125, 14.5, 15.1875, 16.625, 13.375, 16.375, 13.8125, 14.25, 15.875, 16.625, 18.25, 16.875, 13.375, 15.1875, 15.625, 14.5, 16.375, 16.625, 16.875, 14.6875, 13.375, 14.5, 16.125, 18.25, 16.375, 14.25, 16.375, 17.25, 15.4375, 19.75, 14.0, 14.6875, 15.625, 17.75, 13.1875, 17.5, 13.1875, 17.5, 12.75, 16.375, 14.9375, 15.1875, 17.75, 14.25, 14.9375, 18.25, 15.625, 16.875, 18.625, 14.9375, 17.75, 14.5, 14.9375, 13.375, 14.25, 15.1875, 16.125, 13.1875, 13.625, 14.5, 13.375, 14.5, 14.5, 16.125, 15.625, 16.875, 14.6875, 16.125, 16.125, 14.5, 19.125, 17.5, 14.0, 17.25, 13.625, 16.125, 14.5, 17.5, 15.875, 14.6875, 13.625, 14.9375, 18.25, 14.9375, 14.25, 14.6875, 20.125, 14.5, 15.875, 16.125, 17.25, 15.4375, 12.375, 15.625, 15.875, 16.625, 16.875, 14.25, 18.25, 12.75, 14.25, 14.9375, 14.0, 14.9375, 12.5625, 16.375, 15.1875, 16.875, 13.375, 19.5, 16.875, 15.4375, 11.8125, 15.1875, 18.0, 14.5, 16.375, 13.8125, 13.8125, 14.6875, 12.5625, 14.9375, 12.75, 14.9375, 19.5, 15.1875, 14.9375, 15.4375, 16.375, 14.5, 16.125, 14.0, 16.375, 14.9375, 15.1875, 15.4375, 16.125, 14.6875, 15.625, 12.75, 14.0, 15.625, 17.25, 16.375, 15.4375, 14.0, 12.1875, 12.75, 9.9375, 13.8125, 15.625, 16.875, 14.6875, 13.8125, 15.1875, 16.875, 13.8125, 11.125, 11.8125, 14.25, 17.5, 12.75, 14.9375, 15.625, 16.375, 14.9375, 15.875, 16.125, 13.375, 15.4375, 13.625, 16.125, 15.625, 13.625, 14.25, 14.5, 15.1875, 14.6875, 14.5, 16.375, 17.5, 14.9375, 13.375, 16.875, 13.1875, 16.375, 19.125, 11.4375, 15.1875, 15.4375, 13.8125, 15.1875, 15.875, 17.25, 14.5, 16.875, 12.0, 14.5, 12.5625, 16.375, 12.375, 13.8125, 13.375, 11.625, 16.375, 14.0, 13.8125, 14.9375, 14.6875, 14.5, 15.4375, 14.25, 15.4375, 14.5, 12.1875, 14.6875, 15.1875, 13.625, 12.75, 14.25, 12.5625, 10.9375, 13.625, 15.4375, 12.1875, 13.375, 13.0, 13.8125, 15.875, 13.8125, 14.5, 16.875, 14.6875, 13.625, 14.25, 14.5, 13.8125, 13.375, 13.1875, 14.6875, 14.6875, 11.125, 15.625, 14.5, 16.125, 14.25, 13.1875, 12.375, 13.625, 15.1875, 13.625, 17.75, 14.25, 13.625, 13.1875, 15.1875, 11.8125, 16.375, 13.8125, 12.5625, 13.625, 13.1875, 14.5, 12.75, 12.75, 13.8125, 14.5, 10.5625, 15.625, 13.625, 13.375, 13.375, 14.6875, 14.0, 15.625, 12.75, 13.625, 16.875, 16.375, 11.8125, 15.4375, 13.375, 12.5625, 13.0, 12.1875, 11.8125, 13.8125, 16.375, 13.625, 14.6875, 14.5, 13.8125, 15.4375, 14.6875, 14.25, 12.5625, 14.9375, 13.8125, 14.6875, 14.0, 12.75, 16.375, 12.75, 14.6875, 19.5, 13.625, 11.8125, 14.0, 12.375, 13.625, 13.1875, 11.625, 11.125, 17.5, 12.5625, 12.5625, 14.5, 12.1875, 10.125, 14.6875, 13.1875, 11.8125, 14.25, 12.75, 12.0, 12.1875, 13.0, 13.8125, 14.25, 13.375, 13.1875, 16.875, 14.0, 12.375, 13.625, 13.625, 11.8125, 14.9375, 14.6875, 13.1875, 15.1875, 15.1875, 14.5, 14.0, 12.5625, 15.875, 11.8125, 11.8125, 11.25, 14.9375, 11.25, 13.8125, 13.0, 10.9375, 13.1875, 13.0, 14.5, 11.625, 13.8125, 13.625, 12.75, 14.0, 13.8125, 12.1875, 14.9375, 13.1875, 13.375, 12.5625, 12.5625, 12.75, 9.8125, 14.9375, 12.5625, 11.8125, 12.75, 12.375, 14.0, 14.6875, 12.75, 12.75, 13.375, 14.25, 13.625, 14.25, 13.625, 13.625, 15.1875, 16.625, 12.75, 13.8125, 12.75, 13.375, 14.0, 14.0, 13.1875, 14.6875, 14.9375, 14.6875, 13.625, 13.625, 14.0, 12.5625, 13.8125, 13.1875, 13.375, 13.375, 13.0, 13.8125, 15.1875, 13.1875, 11.4375, 14.5, 14.6875, 10.25, 14.9375, 12.75, 13.375, 12.5625, 13.8125, 12.75, 14.0, 12.5625, 13.1875, 11.8125]","[0.0, 0.04453125223517418, 0.07866211235523224, 0.07587891072034836, 0.096923828125, 0.06772460788488388, 0.12006836384534836, 0.092041015625, 0.108642578125, 0.08256836235523224, 0.10605468600988388, 0.12646484375, 0.10625000298023224, 0.10415039211511612, 0.11562500149011612, 0.12055664509534836, 0.10917969048023224, 0.12587891519069672, 0.12646484375, 0.14399413764476776, 0.13076172769069672, 0.12109375, 0.12045898288488388, 0.09658203274011612, 0.11752929538488388, 0.11201172322034836, 0.10791015625, 0.114013671875, 0.15224610269069672, 0.12080078572034836, 0.12895508110523224, 0.124267578125, 0.14340820908546448, 0.11650390923023224, 0.14877930283546448, 0.155029296875, 0.18544922769069672, 0.12788085639476776, 0.130615234375, 0.12172851711511612, 0.119140625, 0.12583008408546448, 0.13637696206569672, 0.12172851711511612, 0.13632813096046448, 0.15654297173023224, 0.15717773139476776, 0.11865234375, 0.16259765625, 0.15302734076976776, 0.16835938394069672, 0.14897461235523224, 0.14072266221046448, 0.15537109971046448, 0.13554687798023224, 0.142822265625, 0.14399413764476776, 0.12875977158546448, 0.12558594346046448, 0.15981446206569672, 0.16020508110523224, 0.14667968451976776, 0.17573241889476776, 0.18242187798023224, 0.15634766221046448, 0.14570312201976776, 0.12919922173023224, 0.13789062201976776, 0.15727539360523224, 0.16865234076976776, 0.14814452826976776, 0.18022461235523224, 0.193115234375, 0.16943359375, 0.16655273735523224, 0.18198242783546448, 0.14633789658546448, 0.17402343451976776, 0.16420899331569672, 0.17988280951976776, 0.172119140625, 0.15815429389476776, 0.18125000596046448, 0.18022461235523224, 0.16293945908546448, 0.190185546875, 0.12983398139476776, 0.16489258408546448, 0.21123047173023224, 0.15971679985523224, 0.15224610269069672, 0.15830078721046448, 0.16640625894069672, 0.16401366889476776, 0.14956055581569672, 0.21176758408546448, 0.175537109375, 0.18618164956569672, 0.21303711831569672, 0.18408203125, 0.19223633408546448, 0.21137695014476776, 0.18784180283546448, 0.16357421875, 0.17626953125, 0.16679687798023224, 0.20087890326976776, 0.19985352456569672, 0.19316406548023224, 0.15683594346046448, 0.20791016519069672, 0.17060546576976776, 0.19086913764476776, 0.19873046875, 0.17724609375, 0.17905274033546448, 0.21992187201976776, 0.1640625, 0.18701171875, 0.17578125, 0.21699218451976776, 0.1787109375, 0.21127930283546448, 0.17431640625, 0.14218750596046448, 0.19990234076976776, 0.17695312201976776, 0.20986329019069672, 0.22822265326976776, 0.16064453125, 0.16215820610523224, 0.18427734076976776, 0.20341797173023224, 0.18925781548023224, 0.19228516519069672, 0.19033204019069672, 0.19467774033546448, 0.16489258408546448, 0.19194336235523224, 0.18276368081569672, 0.15029297769069672, 0.16015625, 0.21450196206569672, 0.19790039956569672, 0.22412109375, 0.16347657144069672, 0.22646485269069672, 0.16816405951976776, 0.17080079019069672, 0.18168945610523224, 0.18671874701976776, 0.18427734076976776, 0.18715821206569672, 0.17832031846046448, 0.18515625596046448, 0.19462890923023224, 0.21494141221046448, 0.15107421576976776, 0.24653320014476776, 0.21811524033546448, 0.19594727456569672, 0.19121094048023224, 0.16206054389476776, 0.22705078125, 0.18706054985523224, 0.19785156846046448, 0.15961913764476776, 0.21909180283546448, 0.21860352158546448, 0.21630859375, 0.232421875, 0.19497071206569672, 0.20244140923023224, 0.160400390625, 0.20927734673023224, 0.19106446206569672, 0.19853515923023224, 0.22636719048023224, 0.20546875894069672, 0.23974609375, 0.239501953125, 0.24223633110523224, 0.19672851264476776, 0.19926758110523224, 0.22885742783546448, 0.20131836831569672, 0.17319336533546448, 0.19985352456569672, 0.181884765625, 0.21328125894069672, 0.20439453423023224, 0.19672851264476776, 0.20668946206569672, 0.19902344048023224, 0.17573241889476776, 0.15634766221046448, 0.20439453423023224, 0.18701171875, 0.19384765625, 0.20869140326976776, 0.18964843451976776, 0.24506835639476776, 0.243408203125, 0.20205079019069672, 0.24521484971046448, 0.21142578125, 0.24013672769069672, 0.23613281548023224, 0.24643555283546448, 0.21416015923023224, 0.21782226860523224, 0.20390625298023224, 0.23603515326976776, 0.21835938096046448, 0.22797851264476776, 0.21791993081569672, 0.21162109076976776, 0.19379882514476776, 0.21484375, 0.19287109375, 0.20175781846046448, 0.22690430283546448, 0.19301758706569672, 0.19614258408546448, 0.24101562798023224, 0.21064452826976776, 0.20522461831569672, 0.23222656548023224, 0.26044923067092896, 0.16801758110523224, 0.23378907144069672, 0.237060546875, 0.24360351264476776, 0.2177734375, 0.20571289956569672, 0.17758789658546448, 0.21220703423023224, 0.23500977456569672, 0.22861328721046448, 0.19580078125, 0.25273439288139343, 0.18974609673023224, 0.24667969346046448, 0.19365234673023224, 0.2080078125, 0.20649413764476776, 0.22910156846046448, 0.20649413764476776, 0.24101562798023224, 0.181396484375, 0.250732421875, 0.22441406548023224, 0.205810546875, 0.2564941346645355, 0.212890625, 0.23886719346046448, 0.23989258706569672, 0.23457030951976776, 0.22021484375, 0.23212890326976776, 0.27788087725639343, 0.2630371153354645, 0.17197266221046448, 0.21787109971046448, 0.20791016519069672, 0.25341796875, 0.221435546875, 0.19916991889476776, 0.21811524033546448, 0.2605957090854645, 0.23125000298023224, 0.21210937201976776, 0.20004883408546448, 0.22983399033546448, 0.199462890625, 0.21782226860523224, 0.2516113221645355, 0.21953125298023224, 0.21279297769069672, 0.2197265625, 0.27080079913139343, 0.20297852158546448, 0.2688964903354645, 0.21308593451976776, 0.224365234375, 0.24868164956569672, 0.21132813394069672, 0.217041015625, 0.24819336831569672, 0.217041015625, 0.2564453184604645, 0.24272461235523224, 0.226806640625, 0.20395508408546448, 0.22231446206569672, 0.19619141519069672, 0.24013672769069672, 0.23784179985523224, 0.23393554985523224, 0.21035157144069672, 0.24995116889476776, 0.23203125596046448, 0.21835938096046448, 0.2718261778354645, 0.21694336831569672, 0.2538085877895355, 0.25029298663139343, 0.2138671875, 0.23012696206569672, 0.23183594644069672, 0.21098633110523224, 0.22700195014476776, 0.25556641817092896, 0.2601074278354645, 0.19916991889476776, 0.189697265625, 0.243408203125, 0.23115234076976776, 0.19282226264476776, 0.18105469644069672, 0.25810548663139343, 0.20166015625, 0.20888672769069672, 0.23613281548023224, 0.21162109076976776, 0.23491211235523224, 0.262939453125, 0.21015624701976776, 0.23027344048023224, 0.21708984673023224, 0.20263671875, 0.222900390625, 0.17426757514476776, 0.23281250894069672, 0.23920898139476776, 0.24985352158546448, 0.26445314288139343, 0.23134766519069672, 0.22919921576976776, 0.25146484375, 0.24506835639476776, 0.23769532144069672, 0.21381835639476776, 0.29218751192092896, 0.22685547173023224, 0.26665040850639343, 0.23007813096046448, 0.18330077826976776, 0.255615234375, 0.2911132872104645, 0.21865235269069672, 0.242431640625, 0.22407226264476776, 0.22578124701976776, 0.24843750894069672, 0.23452149331569672, 0.23715820908546448, 0.22885742783546448, 0.2952636778354645, 0.20502929389476776, 0.19804687798023224, 0.23544922471046448, 0.25932618975639343, 0.226318359375, 0.2820800840854645, 0.22641602158546448, 0.21787109971046448, 0.27495118975639343, 0.25385743379592896, 0.19858399033546448, 0.2601562440395355, 0.26264649629592896, 0.21650390326976776, 0.21708984673023224, 0.2791503965854645, 0.246337890625, 0.19609375298023224, 0.23583984375, 0.22021484375, 0.259765625, 0.256591796875, 0.24204102158546448, 0.19975586235523224, 0.21562500298023224, 0.16938476264476776, 0.20126953721046448, 0.23564453423023224, 0.24448242783546448, 0.26225587725639343, 0.24946288764476776, 0.2891601622104645, 0.2540039122104645, 0.23203125596046448, 0.21000976860523224, 0.22895507514476776, 0.266357421875, 0.257568359375, 0.24370117485523224, 0.23920898139476776, 0.23979492485523224, 0.17607422173023224, 0.249755859375, 0.25468751788139343, 0.22309570014476776, 0.23784179985523224, 0.20732422173023224, 0.243408203125, 0.2720703184604645, 0.21352539956569672, 0.224853515625, 0.24365234375, 0.2667480409145355, 0.20810547471046448, 0.20708008110523224, 0.201904296875, 0.21708984673023224, 0.23125000298023224, 0.23520508408546448, 0.23017577826976776, 0.22915039956569672, 0.22607421875, 0.27348634600639343, 0.26386719942092896, 0.21469727158546448, 0.2605957090854645, 0.22412109375, 0.24819336831569672, 0.2649902403354645, 0.2880859375, 0.23032227158546448, 0.25493165850639343, 0.2725585997104645, 0.23598633706569672, 0.25859376788139343, 0.26616212725639343, 0.23623047769069672, 0.21660156548023224, 0.24335937201976776, 0.24653320014476776, 0.26738283038139343, 0.23896484076976776, 0.280029296875, 0.26079103350639343, 0.26542970538139343, 0.24770508706569672, 0.2726074159145355, 0.216552734375, 0.2967285215854645, 0.20444336533546448, 0.22495117783546448, 0.24248047173023224, 0.21298828721046448, 0.21445313096046448, 0.24614258110523224, 0.24531249701976776, 0.27607423067092896, 0.2981933653354645, 0.21162109076976776, 0.3030761778354645, 0.24335937201976776, 0.22797851264476776, 0.24467773735523224, 0.259033203125, 0.27827149629592896, 0.24995116889476776, 0.23247070610523224, 0.26386719942092896, 0.226318359375, 0.26899415254592896, 0.20722655951976776, 0.23295898735523224, 0.19106446206569672, 0.2177734375, 0.212890625, 0.294189453125, 0.30097657442092896, 0.24458007514476776, 0.20419922471046448, 0.27763673663139343, 0.2606445252895355, 0.255859375, 0.277587890625, 0.18793945014476776, 0.22001953423023224, 0.2763671875, 0.19321289658546448, 0.300537109375, 0.22709961235523224, 0.22470703721046448, 0.2841796875, 0.24321289360523224, 0.21401368081569672, 0.20869140326976776, 0.26655274629592896, 0.23735351860523224, 0.243408203125, 0.23061524331569672, 0.301513671875, 0.29301759600639343, 0.3038574159145355, 0.2693847715854645, 0.22978515923023224, 0.199462890625, 0.2857421934604645, 0.20869140326976776, 0.25493165850639343, 0.25004884600639343, 0.20346680283546448, 0.27885743975639343, 0.20913086831569672, 0.18447266519069672, 0.2510742247104645, 0.21220703423023224, 0.27861329913139343, 0.241455078125, 0.2490234375, 0.22265625, 0.28271484375, 0.2566894590854645, 0.2587890625, 0.225830078125, 0.24658203125, 0.25, 0.24565429985523224, 0.26508790254592896, 0.20302735269069672, 0.25639650225639343, 0.27641603350639343, 0.2706054747104645, 0.21992187201976776, 0.26738283038139343, 0.2605957090854645, 0.22993163764476776, 0.2601074278354645, 0.255859375, 0.27055665850639343, 0.30107423663139343, 0.20917968451976776, 0.202880859375, 0.22529296576976776, 0.276123046875, 0.26884767413139343, 0.3028320372104645, 0.3089843690395355, 0.2923828065395355, 0.24550782144069672, 0.223876953125, 0.287109375, 0.21572266519069672, 0.28154298663139343, 0.22685547173023224, 0.223876953125, 0.228271484375, 0.29584962129592896, 0.24887695908546448, 0.24208985269069672, 0.26079103350639343, 0.23930664360523224, 0.207275390625, 0.24257813394069672, 0.2557128965854645, 0.3045410215854645, 0.255126953125, 0.19223633408546448, 0.265380859375, 0.19741211831569672, 0.25468751788139343, 0.20429687201976776, 0.25078126788139343, 0.26166993379592896, 0.28217774629592896, 0.18745116889476776, 0.20366211235523224, 0.29130861163139343, 0.2080078125, 0.29716798663139343, 0.24296875298023224, 0.22661133110523224, 0.28105470538139343, 0.27119141817092896, 0.264404296875, 0.211181640625, 0.2574706971645355, 0.2255859375, 0.20346680283546448, 0.23686523735523224, 0.2721191346645355, 0.21303711831569672, 0.26665040850639343, 0.279296875, 0.3145507872104645, 0.28120118379592896, 0.287841796875, 0.23564453423023224, 0.24404297769069672, 0.25581055879592896, 0.23759765923023224, 0.27167969942092896, 0.3102050721645355, 0.2557617127895355, 0.25019532442092896, 0.26923829317092896, 0.24604491889476776, 0.282958984375, 0.22207032144069672, 0.2798828184604645, 0.2994140684604645, 0.2882324159145355, 0.267822265625, 0.27778321504592896, 0.207763671875, 0.27421876788139343, 0.287353515625, 0.27348634600639343, 0.28789064288139343, 0.23046875, 0.27583009004592896, 0.27373048663139343, 0.21723632514476776, 0.23159180581569672, 0.2735351622104645, 0.24741211533546448, 0.26655274629592896, 0.24399414658546448, 0.2906250059604645, 0.24106445908546448, 0.28569337725639343, 0.2958984375, 0.2767089903354645, 0.22309570014476776, 0.26591798663139343, 0.25898438692092896, 0.25947266817092896, 0.24335937201976776, 0.2693847715854645, 0.25029298663139343, 0.30561524629592896, 0.242431640625, 0.3003906309604645, 0.27998048067092896, 0.24135743081569672, 0.2562499940395355, 0.23593750596046448, 0.23779296875, 0.265869140625, 0.27734375, 0.2745605409145355, 0.2511230409145355, 0.23378907144069672, 0.2804199159145355, 0.2718749940395355, 0.3185058534145355, 0.24409179389476776, 0.26152345538139343, 0.2265625, 0.23955078423023224, 0.22368164360523224, 0.22250977158546448, 0.2655273377895355, 0.2515625059604645, 0.22749023139476776, 0.2821289002895355, 0.2734375, 0.22187499701976776, 0.265625, 0.241943359375, 0.23056641221046448, 0.2920898497104645, 0.28447267413139343, 0.2662109434604645, 0.2547363340854645, 0.2618164122104645, 0.28657227754592896, 0.244140625, 0.262939453125, 0.27197265625, 0.2562011778354645, 0.23349609971046448, 0.26459962129592896, 0.2754882872104645, 0.2568359375, 0.2874999940395355, 0.31708985567092896, 0.2916503846645355, 0.24462890625, 0.2713378965854645, 0.21108399331569672, 0.3019042909145355, 0.29130861163139343, 0.24965821206569672, 0.24311523139476776, 0.265869140625, 0.24404297769069672, 0.25517579913139343, 0.25439453125, 0.32294923067092896, 0.24501954019069672, 0.2613281309604645, 0.26606446504592896, 0.27348634600639343, 0.26054689288139343, 0.25776368379592896, 0.2528320252895355, 0.24565429985523224, 0.24350586533546448, 0.2666015625, 0.26386719942092896, 0.30620118975639343, 0.22426758706569672, 0.33183595538139343, 0.28642579913139343, 0.22890625894069672, 0.22587890923023224, 0.2503906190395355, 0.31640625, 0.24116210639476776, 0.24824218451976776, 0.2579101622104645, 0.2530761659145355, 0.26093751192092896, 0.2591308653354645, 0.24355469644069672, 0.224365234375, 0.23403321206569672, 0.2523437440395355, 0.19086913764476776, 0.20107422769069672, 0.32661134004592896, 0.22812500596046448, 0.312744140625, 0.2765136659145355, 0.223388671875, 0.23105469346046448, 0.263671875, 0.24013672769069672, 0.2643066346645355, 0.23813477158546448, 0.2732910215854645, 0.23408202826976776, 0.313232421875, 0.2583984434604645, 0.29414063692092896, 0.2635253965854645, 0.2894043028354645, 0.267333984375, 0.23149414360523224, 0.24394531548023224, 0.22622071206569672, 0.24106445908546448, 0.245849609375, 0.2684570252895355, 0.20747070014476776, 0.27631837129592896, 0.32124024629592896, 0.24267578125, 0.255859375, 0.26220703125, 0.28271484375, 0.28388673067092896, 0.267578125, 0.26215821504592896, 0.29179689288139343, 0.3216796815395355, 0.23920898139476776, 0.29150390625, 0.26118165254592896, 0.2997070252895355, 0.24697266519069672, 0.2740234434604645, 0.22568359971046448, 0.24384765326976776, 0.17988280951976776, 0.2640136778354645, 0.23886719346046448, 0.30229493975639343, 0.26591798663139343, 0.31123048067092896, 0.20571289956569672, 0.23574219644069672, 0.24086914956569672, 0.24677734076976776, 0.24765625596046448, 0.28632813692092896, 0.23076172173023224, 0.2662597596645355, 0.28125, 0.24672852456569672, 0.24838867783546448, 0.251708984375, 0.2865234315395355, 0.23076172173023224, 0.22592774033546448, 0.263427734375, 0.3199706971645355, 0.21391601860523224, 0.26728516817092896, 0.26616212725639343, 0.3041015565395355, 0.26176759600639343, 0.27666017413139343, 0.20000000298023224, 0.28388673067092896, 0.2762207090854645, 0.21523438394069672, 0.2903808653354645, 0.21210937201976776, 0.2828125059604645, 0.24951171875, 0.29931640625, 0.2593750059604645, 0.244873046875, 0.25312501192092896, 0.30463868379592896, 0.259521484375, 0.2579589784145355, 0.20004883408546448, 0.24873046576976776, 0.2854980528354645, 0.24833984673023224, 0.23330079019069672, 0.3145996034145355, 0.20664063096046448, 0.2721191346645355, 0.26337891817092896, 0.248779296875, 0.2604003846645355, 0.3604980409145355, 0.3140625059604645, 0.25048828125, 0.2627929747104645, 0.29863283038139343, 0.19028320908546448, 0.2701171934604645, 0.22280274331569672, 0.2789550721645355, 0.2794433534145355, 0.2576660215854645, 0.274658203125, 0.30805665254592896, 0.23139648139476776, 0.21552734076976776, 0.26655274629592896, 0.26215821504592896, 0.23876953125, 0.26542970538139343, 0.3169921934604645, 0.26240235567092896, 0.251708984375, 0.255126953125, 0.26298829913139343, 0.2588867247104645, 0.30913087725639343, 0.23696289956569672, 0.325439453125, 0.25996094942092896, 0.26611328125, 0.304931640625, 0.24077148735523224, 0.2804199159145355, 0.19003906846046448, 0.2557128965854645, 0.28535157442092896, 0.22915039956569672, 0.29155275225639343, 0.2930664122104645, 0.3067382872104645, 0.2735839784145355, 0.2718261778354645, 0.19716797769069672, 0.2525878846645355, 0.30498048663139343, 0.2632812559604645, 0.24970702826976776, 0.23813477158546448, 0.29731446504592896, 0.23759765923023224, 0.24516601860523224, 0.23334960639476776, 0.3207031190395355, 0.28754884004592896, 0.22182618081569672, 0.237060546875, 0.24013672769069672, 0.26411134004592896, 0.27714845538139343, 0.30009767413139343, 0.22812500596046448, 0.21162109076976776, 0.24028320610523224, 0.2643066346645355, 0.27197265625, 0.2901855409145355, 0.26738283038139343, 0.24599610269069672, 0.24477539956569672, 0.27197265625, 0.27177736163139343, 0.25830078125, 0.24125976860523224, 0.29326173663139343, 0.23872070014476776, 0.2518554627895355, 0.25688478350639343, 0.22441406548023224, 0.23789063096046448, 0.29438477754592896, 0.25410157442092896, 0.27128908038139343, 0.26030275225639343, 0.26826173067092896, 0.2718261778354645, 0.26655274629592896, 0.2596679627895355, 0.29960939288139343, 0.23530273139476776, 0.3095703125, 0.26079103350639343, 0.332275390625, 0.2662597596645355, 0.2684570252895355, 0.25947266817092896, 0.19321289658546448, 0.25732421875, 0.3257812559604645, 0.3302246034145355, 0.26093751192092896, 0.2904296815395355, 0.30278322100639343, 0.23388671875, 0.22333984076976776, 0.23002929985523224, 0.25, 0.2562011778354645, 0.2784667909145355, 0.206787109375, 0.237548828125, 0.2831054627895355, 0.3299316465854645, 0.26166993379592896, 0.196533203125, 0.21127930283546448, 0.28642579913139343, 0.23354493081569672, 0.27363282442092896, 0.21083985269069672, 0.29218751192092896, 0.2676757872104645, 0.28007814288139343, 0.29780274629592896, 0.27363282442092896, 0.30585938692092896, 0.30122071504592896, 0.27421876788139343, 0.22519531846046448, 0.24453125894069672, 0.2930664122104645, 0.29204103350639343, 0.3470214903354645, 0.28364259004592896, 0.25322267413139343, 0.2535156309604645, 0.3008789122104645, 0.2528320252895355, 0.29414063692092896, 0.279052734375, 0.26025390625, 0.2750488221645355, 0.24072265625, 0.24184571206569672, 0.26054689288139343, 0.19614258408546448, 0.2955078184604645, 0.22578124701976776, 0.264892578125, 0.2655273377895355, 0.24018554389476776, 0.28901368379592896, 0.19160155951976776, 0.24721680581569672, 0.30122071504592896, 0.25874024629592896, 0.3433593809604645, 0.19829101860523224, 0.29155275225639343, 0.3182128965854645, 0.28486329317092896, 0.2635742127895355, 0.2981933653354645, 0.28886720538139343, 0.248291015625, 0.25615236163139343, 0.2847656309604645, 0.3128906190395355, 0.22563476860523224, 0.25336915254592896, 0.23432616889476776, 0.25532227754592896, 0.26884767413139343, 0.30224609375, 0.2815918028354645, 0.23251953721046448, 0.2294921875, 0.269287109375, 0.29912111163139343, 0.2918457090854645, 0.29008790850639343, 0.2591796815395355, 0.23354493081569672, 0.279541015625, 0.2748046815395355, 0.27436524629592896, 0.2672363221645355, 0.289306640625, 0.23652343451976776, 0.26166993379592896, 0.25732421875, 0.2706054747104645, 0.31391602754592896, 0.28876954317092896, 0.27338868379592896, 0.2601074278354645, 0.3365234434604645, 0.232666015625, 0.23666992783546448, 0.2703613340854645, 0.2733398377895355, 0.2547851502895355, 0.26787111163139343, 0.28120118379592896, 0.28862306475639343, 0.3177246153354645, 0.3180175721645355, 0.24052734673023224, 0.284912109375, 0.24497070908546448, 0.2818359434604645, 0.29047852754592896, 0.32719728350639343, 0.24453125894069672, 0.2674316465854645, 0.2635742127895355, 0.26201173663139343, 0.24462890625, 0.28691408038139343, 0.2977539002895355, 0.281005859375, 0.2950683534145355, 0.3084960877895355, 0.31103515625, 0.25239259004592896, 0.26362305879592896, 0.2770019471645355, 0.2583984434604645, 0.19833984971046448, 0.28227540850639343, 0.25615236163139343, 0.293701171875, 0.3143066465854645, 0.2726074159145355, 0.2518554627895355, 0.25883790850639343, 0.25590822100639343, 0.20805664360523224, 0.21357421576976776, 0.27763673663139343, 0.269287109375, 0.22817383706569672, 0.25874024629592896, 0.26176759600639343, 0.230712890625, 0.27851563692092896, 0.2862304747104645, 0.3238281309604645, 0.25874024629592896, 0.21806640923023224, 0.3173828125, 0.2623535096645355, 0.27143555879592896, 0.25166016817092896, 0.2952636778354645, 0.24355469644069672, 0.31914064288139343, 0.2533203065395355, 0.26313477754592896, 0.31230470538139343, 0.21127930283546448, 0.29072266817092896, 0.31401368975639343, 0.27055665850639343, 0.29755860567092896, 0.27592775225639343, 0.294189453125, 0.24594727158546448, 0.2837890684604645, 0.23779296875, 0.22548829019069672, 0.252685546875, 0.3042968809604645, 0.28730469942092896, 0.26240235567092896, 0.2640624940395355, 0.2559570372104645, 0.21450196206569672, 0.28535157442092896, 0.2743164002895355, 0.2630859315395355, 0.24282227456569672, 0.2522949278354645, 0.28095704317092896, 0.2625976502895355, 0.3485351502895355, 0.29804688692092896, 0.2918457090854645, 0.2568359375, 0.303955078125, 0.25947266817092896, 0.2777343690395355, 0.27519533038139343, 0.2750000059604645, 0.25981447100639343, 0.2774902284145355, 0.2518066465854645, 0.28959962725639343, 0.25664064288139343, 0.2520996034145355, 0.2799316346645355, 0.258544921875, 0.27006837725639343, 0.29248046875, 0.20034180581569672, 0.3271484375, 0.29252931475639343, 0.25175783038139343, 0.23701171576976776, 0.27583009004592896, 0.253662109375, 0.2646484375, 0.23911133408546448, 0.26826173067092896, 0.2933593690395355, 0.27495118975639343, 0.3248535096645355, 0.240234375, 0.29052734375, 0.2740234434604645, 0.2979492247104645, 0.25273439288139343, 0.21142578125, 0.3169921934604645, 0.3075195252895355, 0.2862304747104645, 0.291259765625, 0.26806640625, 0.24750976264476776, 0.22382812201976776, 0.2672363221645355, 0.2604003846645355, 0.2527832090854645, 0.25117188692092896, 0.25947266817092896, 0.26738283038139343, 0.33549806475639343, 0.2889648377895355, 0.237548828125, 0.22587890923023224, 0.2794433534145355, 0.30400392413139343, 0.2503906190395355, 0.2877441346645355, 0.2583984434604645, 0.24189452826976776, 0.24794922769069672, 0.28959962725639343, 0.2818847596645355, 0.25175783038139343, 0.2842773497104645, 0.281005859375, 0.239013671875, 0.26347658038139343, 0.2538085877895355, 0.3028320372104645, 0.2508300840854645, 0.2880859375, 0.27739259600639343, 0.26313477754592896, 0.22758789360523224, 0.24472656846046448, 0.2708984315395355, 0.31718751788139343, 0.2710937559604645, 0.24711914360523224, 0.3077148497104645, 0.28486329317092896, 0.279296875, 0.3043456971645355, 0.27338868379592896, 0.31787109375, 0.2928710877895355, 0.28632813692092896, 0.23681640625, 0.31928712129592896, 0.2589355409145355, 0.22309570014476776, 0.3397460877895355, 0.27294921875, 0.28901368379592896, 0.21528320014476776, 0.22939454019069672, 0.26542970538139343, 0.23793946206569672, 0.28056642413139343, 0.21821288764476776, 0.26289063692092896, 0.2679199278354645, 0.2520507872104645, 0.262939453125, 0.25678712129592896, 0.32636719942092896, 0.24335937201976776, 0.29316407442092896, 0.29951173067092896, 0.26274415850639343, 0.30571290850639343, 0.30000001192092896, 0.28955078125, 0.25932618975639343, 0.22788086533546448, 0.2879394590854645, 0.2505859434604645, 0.24335937201976776, 0.23583984375, 0.22958984971046448, 0.30000001192092896, 0.27363282442092896, 0.25385743379592896, 0.2991699278354645, 0.2574706971645355, 0.20878906548023224, 0.27250978350639343, 0.2767089903354645, 0.303466796875, 0.23388671875, 0.3046875, 0.275146484375, 0.2569335997104645, 0.25444337725639343, 0.24199219048023224, 0.23789063096046448, 0.25004884600639343, 0.2925781309604645, 0.28217774629592896, 0.30634766817092896, 0.3013671934604645, 0.31010743975639343, 0.2578125, 0.24897460639476776, 0.24746094644069672, 0.24726562201976776, 0.2816406190395355, 0.24238280951976776, 0.2679687440395355, 0.27641603350639343, 0.3121581971645355, 0.267333984375, 0.27558594942092896, 0.279052734375, 0.316650390625, 0.262451171875, 0.24116210639476776, 0.27485352754592896, 0.26030275225639343, 0.32465821504592896, 0.24223633110523224, 0.291259765625, 0.27690431475639343, 0.21416015923023224, 0.2918945252895355, 0.28032228350639343, 0.30439454317092896, 0.21660156548023224, 0.2718749940395355, 0.28959962725639343, 0.22734375298023224, 0.240478515625, 0.2920898497104645, 0.32246094942092896, 0.27607423067092896, 0.2850585877895355, 0.25849610567092896, 0.2962402403354645, 0.275634765625, 0.29316407442092896, 0.2582031190395355, 0.24545899033546448, 0.309814453125, 0.32758790254592896, 0.29541015625, 0.173583984375, 0.2596191465854645, 0.2861328125, 0.23349609971046448, 0.22880859673023224, 0.268310546875, 0.26484376192092896, 0.2762695252895355, 0.2999023497104645, 0.240478515625, 0.26289063692092896, 0.31962892413139343, 0.29345703125, 0.26826173067092896, 0.288330078125, 0.2939453125, 0.286865234375, 0.203857421875, 0.2584472596645355, 0.2894531190395355, 0.3197265565395355, 0.27373048663139343, 0.26958009600639343, 0.30595704913139343, 0.23012696206569672, 0.2784667909145355, 0.23183594644069672, 0.18681640923023224, 0.24531249701976776, 0.21176758408546448, 0.25703126192092896, 0.3203125, 0.2696289122104645, 0.24428711831569672, 0.21323242783546448, 0.268310546875, 0.2754882872104645, 0.31059572100639343, 0.2628417909145355, 0.31342774629592896, 0.26777344942092896, 0.2802734375, 0.28105470538139343, 0.23930664360523224, 0.32695314288139343, 0.3333984315395355, 0.3274902403354645, 0.30268555879592896, 0.30961915850639343, 0.25141602754592896, 0.25927734375, 0.29438477754592896, 0.3304687440395355, 0.262451171875, 0.3014160096645355, 0.342041015625, 0.2608398497104645, 0.3448242247104645, 0.3495117127895355, 0.26079103350639343, 0.28642579913139343, 0.2763671875, 0.31123048067092896, 0.3260742127895355, 0.31743165850639343, 0.19960938394069672, 0.22758789360523224, 0.29584962129592896, 0.2757324278354645, 0.28242188692092896, 0.22719727456569672, 0.29633790254592896, 0.30878907442092896, 0.25615236163139343, 0.30668947100639343, 0.3072265684604645, 0.27705079317092896, 0.25385743379592896, 0.2373046875, 0.27729493379592896, 0.2669921815395355, 0.24086914956569672, 0.2933105528354645, 0.24838867783546448, 0.30693361163139343, 0.3077148497104645, 0.2940429747104645, 0.26787111163139343, 0.29047852754592896, 0.30913087725639343, 0.287353515625, 0.24648438394069672, 0.2935546934604645, 0.28754884004592896, 0.257568359375, 0.24116210639476776, 0.30122071504592896, 0.25874024629592896, 0.2784667909145355, 0.27885743975639343, 0.26567384600639343, 0.30878907442092896, 0.25761720538139343, 0.25126954913139343, 0.28510743379592896, 0.2728515565395355, 0.28535157442092896, 0.2977050840854645, 0.26494142413139343, 0.310546875, 0.27250978350639343, 0.24008789658546448, 0.255126953125, 0.2586914002895355, 0.3377929627895355, 0.274169921875, 0.27275392413139343, 0.22983399033546448, 0.29931640625, 0.2589355409145355, 0.269775390625, 0.3111328184604645, 0.268798828125, 0.26093751192092896, 0.21542969346046448, 0.26201173663139343, 0.248291015625, 0.31879884004592896, 0.23583984375, 0.23457030951976776, 0.28291016817092896, 0.27392578125, 0.24506835639476776, 0.2583984434604645, 0.2774902284145355, 0.30058595538139343, 0.28422853350639343, 0.2804199159145355, 0.24794922769069672, 0.23740234971046448, 0.2874999940395355, 0.32246094942092896, 0.35844728350639343, 0.26762697100639343, 0.26176759600639343, 0.23813477158546448, 0.2740234434604645, 0.24326172471046448, 0.28325197100639343, 0.18666993081569672, 0.242431640625, 0.26704102754592896, 0.3124023377895355, 0.2638183534145355, 0.31254884600639343, 0.24531249701976776, 0.24692383408546448, 0.31201171875, 0.24887695908546448, 0.31669923663139343, 0.30400392413139343, 0.260498046875, 0.26264649629592896, 0.22773437201976776, 0.34160158038139343, 0.3399414122104645, 0.27827149629592896, 0.31884765625, 0.28569337725639343, 0.2470703125, 0.286865234375, 0.25981447100639343, 0.3187499940395355, 0.32080078125, 0.2882324159145355, 0.21870116889476776, 0.2745117247104645, 0.2864746153354645, 0.2628417909145355, 0.24394531548023224, 0.2853027284145355, 0.224853515625, 0.25581055879592896, 0.2847656309604645, 0.28461915254592896, 0.22314453125, 0.29716798663139343, 0.29682618379592896, 0.3102050721645355, 0.23837891221046448, 0.28837892413139343, 0.28852540254592896, 0.24331055581569672, 0.24843750894069672, 0.24448242783546448, 0.265625, 0.3272949159145355, 0.2823730409145355, 0.30029296875, 0.2803710997104645, 0.27397462725639343, 0.2693847715854645, 0.23520508408546448, 0.24062500894069672, 0.25483399629592896, 0.25532227754592896, 0.21967773139476776, 0.2870117127895355, 0.24946288764476776, 0.30620118975639343, 0.28173828125, 0.28564453125, 0.3485351502895355, 0.3025878965854645, 0.3030761778354645, 0.2510742247104645, 0.26811525225639343, 0.22207032144069672, 0.21484375, 0.26567384600639343, 0.30034181475639343, 0.31586915254592896, 0.2940429747104645, 0.31416016817092896, 0.30961915850639343, 0.2921386659145355, 0.3046875, 0.2431640625, 0.24941407144069672, 0.24501954019069672, 0.25288087129592896, 0.22114257514476776, 0.23647461831569672, 0.2881835997104645, 0.2540527284145355, 0.2979492247104645, 0.27470704913139343, 0.27265626192092896, 0.27788087725639343, 0.2962402403354645, 0.21694336831569672, 0.23666992783546448, 0.30815431475639343, 0.29960939288139343, 0.30620118975639343, 0.32109376788139343, 0.27705079317092896, 0.20737305283546448, 0.265869140625, 0.25322267413139343, 0.28144532442092896, 0.2676757872104645, 0.29594728350639343, 0.25517579913139343, 0.27363282442092896, 0.29985353350639343, 0.2596679627895355, 0.3204101622104645, 0.26318359375, 0.27778321504592896, 0.30253908038139343, 0.3687500059604645, 0.24174804985523224, 0.2659668028354645, 0.24887695908546448, 0.2881835997104645, 0.2643066346645355, 0.2906738221645355, 0.35795900225639343, 0.29780274629592896, 0.3492675721645355, 0.22807617485523224, 0.2723632752895355, 0.25146484375, 0.29375001788139343, 0.23505859076976776, 0.2979980409145355, 0.2784179747104645, 0.25883790850639343, 0.29443359375, 0.30366212129592896, 0.24418945610523224, 0.24721680581569672, 0.2989257872104645, 0.275146484375, 0.303466796875, 0.28754884004592896, 0.2862792909145355, 0.33403322100639343, 0.33793947100639343, 0.2723144590854645, 0.30146485567092896, 0.3116210997104645, 0.2903808653354645, 0.21425782144069672, 0.304443359375, 0.23759765923023224, 0.27143555879592896, 0.2579101622104645, 0.20200195908546448, 0.24008789658546448, 0.29497072100639343, 0.2747558653354645, 0.304931640625, 0.29887697100639343, 0.36088868975639343, 0.309814453125, 0.252197265625, 0.21782226860523224, 0.2552734315395355, 0.30009767413139343, 0.2652831971645355, 0.2723632752895355, 0.27983400225639343, 0.25439453125, 0.24755859375, 0.312255859375, 0.2774902284145355, 0.32768556475639343, 0.23564453423023224, 0.247802734375, 0.3312011659145355, 0.254150390625, 0.3020996153354645, 0.25, 0.302734375, 0.2503418028354645, 0.28813478350639343, 0.33916017413139343, 0.29936525225639343, 0.31782227754592896, 0.326171875, 0.2759765684604645, 0.3106445372104645, 0.25654298067092896, 0.301513671875, 0.2470703125, 0.32890626788139343, 0.25703126192092896, 0.25214844942092896, 0.2750488221645355, 0.34599611163139343, 0.30009767413139343, 0.240966796875, 0.2811523377895355, 0.24467773735523224, 0.28911134600639343, 0.26386719942092896, 0.2708496153354645, 0.32075196504592896, 0.25834962725639343, 0.272216796875, 0.3140625059604645, 0.27836915850639343, 0.33588868379592896, 0.30439454317092896, 0.2904296815395355, 0.244140625, 0.2738281190395355, 0.26777344942092896, 0.280029296875, 0.2665039002895355, 0.2599121034145355, 0.23408202826976776, 0.3045410215854645, 0.275634765625, 0.22807617485523224, 0.21718750894069672, 0.2713867127895355, 0.34296876192092896, 0.27490234375, 0.292236328125, 0.30791017413139343, 0.2725585997104645, 0.3045898377895355, 0.270263671875, 0.34326171875, 0.279052734375, 0.3651367127895355, 0.30327150225639343, 0.28974610567092896, 0.3174804747104645, 0.25346681475639343, 0.31953126192092896, 0.23583984375, 0.32465821504592896, 0.28666993975639343, 0.309326171875, 0.28911134600639343, 0.25224611163139343, 0.2920898497104645, 0.3094726502895355, 0.2793945372104645, 0.25493165850639343, 0.292724609375, 0.31425783038139343, 0.2840332090854645, 0.2767578065395355, 0.30000001192092896, 0.25751954317092896, 0.22563476860523224, 0.30122071504592896, 0.293212890625, 0.2715820372104645, 0.29780274629592896, 0.3260253965854645, 0.31474611163139343, 0.3260253965854645, 0.28569337725639343, 0.2776855528354645, 0.32133790850639343, 0.32880860567092896, 0.29277345538139343, 0.27753907442092896, 0.2626953125, 0.28325197100639343, 0.38359376788139343, 0.2757324278354645, 0.29926759004592896, 0.3082519471645355, 0.29277345538139343, 0.32963868975639343, 0.303955078125, 0.28486329317092896, 0.2750000059604645, 0.3084472715854645, 0.3113769590854645, 0.2809081971645355, 0.2794433534145355, 0.3047851622104645, 0.3033691346645355, 0.31962892413139343, 0.27851563692092896, 0.28984376788139343, 0.27128908038139343, 0.22426758706569672, 0.2894531190395355, 0.2734375, 0.29584962129592896, 0.2604003846645355, 0.2627929747104645, 0.2833496034145355, 0.3087402284145355, 0.3080078065395355, 0.2618652284145355, 0.29033204913139343, 0.29169923067092896, 0.28081056475639343, 0.2977539002895355, 0.3758300840854645, 0.255126953125, 0.2568359375, 0.30839845538139343, 0.2802734375, 0.2820800840854645, 0.304931640625, 0.26958009600639343, 0.320556640625, 0.2708984315395355, 0.305908203125, 0.23232422769069672, 0.2708496153354645, 0.22294922173023224, 0.28657227754592896, 0.29853516817092896, 0.3135742247104645, 0.29277345538139343, 0.32670900225639343, 0.32451173663139343, 0.286376953125, 0.259765625, 0.2892089784145355, 0.243408203125, 0.26953125, 0.29833984375, 0.23945312201976776, 0.3226074278354645, 0.27631837129592896, 0.2533203065395355, 0.2789550721645355, 0.234130859375, 0.24985352158546448, 0.2618652284145355, 0.2806152403354645, 0.30097657442092896, 0.25566408038139343, 0.2579589784145355, 0.26787111163139343, 0.3035644590854645, 0.290771484375, 0.3011230528354645, 0.32841798663139343, 0.32246094942092896, 0.233642578125, 0.3265624940395355, 0.33710938692092896, 0.325439453125, 0.314208984375, 0.3064941465854645, 0.3094726502895355, 0.30815431475639343, 0.2671875059604645, 0.2584472596645355, 0.28203126788139343, 0.32807618379592896, 0.30927735567092896, 0.2920898497104645, 0.3023437559604645, 0.30366212129592896, 0.27275392413139343, 0.2682128846645355, 0.2784179747104645, 0.3487304747104645, 0.34028321504592896, 0.29365235567092896, 0.3037109375, 0.25517579913139343, 0.35444337129592896, 0.23037110269069672, 0.28154298663139343, 0.2776855528354645, 0.301025390625, 0.2625976502895355, 0.28349611163139343, 0.31201171875, 0.28901368379592896, 0.3116699159145355, 0.27099609375, 0.2744140625, 0.30805665254592896, 0.2838378846645355, 0.2879394590854645, 0.30791017413139343, 0.23544922471046448, 0.2979492247104645, 0.2789062559604645, 0.2978515625, 0.38090822100639343, 0.23056641221046448, 0.247802734375, 0.37114259600639343, 0.3170410096645355, 0.334716796875, 0.30927735567092896, 0.34272462129592896, 0.2527832090854645, 0.2816406190395355, 0.2784667909145355, 0.3106445372104645, 0.268798828125, 0.3125, 0.3209472596645355, 0.32207033038139343, 0.2626953125, 0.333251953125, 0.297607421875, 0.2721191346645355, 0.26459962129592896, 0.271240234375, 0.259765625, 0.2503418028354645, 0.3297363221645355, 0.2835449278354645, 0.229248046875, 0.2970214784145355, 0.29814454913139343, 0.23481445014476776, 0.2879394590854645, 0.22441406548023224, 0.2721191346645355, 0.224365234375, 0.2743164002895355, 0.33222657442092896, 0.3130859434604645, 0.3203125, 0.2989746034145355, 0.27446290850639343, 0.25834962725639343, 0.2837890684604645, 0.33793947100639343, 0.32958984375, 0.31367188692092896, 0.27949219942092896, 0.2681640684604645, 0.2779296934604645, 0.32172852754592896, 0.3006835877895355, 0.2933593690395355, 0.263671875, 0.26166993379592896, 0.32734376192092896, 0.3226074278354645, 0.220703125, 0.2734375, 0.263427734375, 0.335693359375, 0.2725585997104645, 0.29438477754592896, 0.3087402284145355, 0.2537597715854645, 0.2754882872104645, 0.29975587129592896, 0.30791017413139343, 0.3046875, 0.33222657442092896, 0.3135742247104645, 0.3291992247104645, 0.35112306475639343, 0.29560548067092896, 0.3133300840854645, 0.2933593690395355, 0.27592775225639343, 0.273681640625, 0.26884767413139343, 0.32084962725639343, 0.22744141519069672, 0.27031251788139343, 0.309326171875, 0.284423828125, 0.24379883706569672, 0.3204589784145355, 0.3124023377895355, 0.29204103350639343, 0.20786133408546448, 0.21538086235523224, 0.34916993975639343, 0.26611328125, 0.2776855528354645, 0.2989746034145355, 0.28837892413139343, 0.29667970538139343, 0.2779785096645355, 0.320068359375, 0.260986328125, 0.23417969048023224, 0.258056640625, 0.29755860567092896, 0.26909181475639343, 0.3426269590854645, 0.33881837129592896, 0.3197265565395355, 0.24951171875, 0.31440430879592896, 0.24257813394069672, 0.3175292909145355, 0.318603515625, 0.3236328065395355, 0.2657714784145355, 0.22978515923023224, 0.334228515625, 0.287841796875, 0.30693361163139343, 0.2794433534145355]","[10.9375, 7.65625, 7.34375, 7.1875, 6.53125, 6.53125, 6.96875, 6.71875, 6.78125, 6.71875, 6.625, 6.53125, 6.65625, 6.625, 6.40625, 6.375, 6.34375, 6.4375, 6.625, 6.5, 6.25, 6.03125, 5.96875, 5.96875, 6.125, 5.875, 6.125, 5.8125, 6.1875, 5.75, 6.15625, 5.875, 5.8125, 5.9375, 5.84375, 5.9375, 6.125, 5.4375, 5.875, 5.4375, 5.5, 5.53125, 5.5, 5.75, 5.5, 5.625, 5.8125, 5.40625, 5.53125, 6.09375, 5.71875, 5.71875, 5.46875, 5.65625, 5.5, 5.46875, 5.28125, 5.53125, 5.4375, 5.3125, 5.34375, 5.125, 5.46875, 5.53125, 5.5625, 5.5625, 5.125, 4.90625, 5.0, 5.21875, 5.15625, 5.28125, 5.28125, 5.375, 5.1875, 5.09375, 5.0, 5.28125, 5.0625, 5.21875, 5.15625, 4.8125, 5.1875, 4.75, 5.1875, 5.0625, 5.15625, 5.25, 5.03125, 5.0625, 5.09375, 5.09375, 5.25, 5.28125, 4.53125, 5.03125, 5.0625, 4.90625, 4.84375, 4.96875, 5.03125, 5.1875, 4.71875, 4.875, 4.84375, 4.78125, 4.875, 4.875, 4.8125, 4.875, 4.9375, 4.71875, 4.71875, 4.6875, 4.53125, 4.6875, 4.875, 4.625, 4.90625, 5.03125, 4.71875, 4.78125, 4.65625, 4.8125, 4.59375, 4.5625, 4.5, 4.4375, 4.5625, 4.65625, 4.40625, 4.28125, 4.6875, 4.5, 4.1875, 4.59375, 4.5625, 4.34375, 4.59375, 4.40625, 4.21875, 4.375, 4.46875, 4.75, 4.59375, 4.375, 4.59375, 4.28125, 4.34375, 4.28125, 4.46875, 4.46875, 4.65625, 4.4375, 4.46875, 4.5, 4.65625, 4.4375, 4.375, 4.625, 4.625, 4.59375, 4.34375, 4.53125, 4.28125, 4.5, 4.15625, 4.25, 4.34375, 4.625, 4.4375, 4.5, 4.46875, 4.53125, 4.46875, 4.40625, 3.953125, 4.4375, 4.625, 4.21875, 4.28125, 4.40625, 4.34375, 4.34375, 4.28125, 4.0625, 4.1875, 3.859375, 4.34375, 4.28125, 4.46875, 4.03125, 3.859375, 4.34375, 4.25, 4.28125, 4.40625, 4.1875, 4.125, 4.40625, 3.828125, 4.28125, 4.40625, 4.125, 4.4375, 4.375, 4.125, 4.40625, 4.09375, 4.125, 4.21875, 4.25, 4.21875, 4.5, 4.03125, 4.21875, 4.125, 3.984375, 4.125, 4.15625, 3.96875, 4.21875, 3.96875, 4.3125, 4.34375, 4.375, 4.09375, 4.21875, 4.40625, 4.0, 4.1875, 4.15625, 4.3125, 4.3125, 3.84375, 3.765625, 4.03125, 4.25, 4.28125, 3.9375, 4.125, 3.953125, 4.1875, 3.734375, 4.1875, 4.125, 4.0, 3.890625, 4.125, 4.21875, 3.984375, 4.15625, 3.84375, 4.03125, 4.125, 3.875, 3.96875, 4.0625, 3.859375, 4.0, 4.15625, 4.25, 4.0, 4.0625, 4.125, 4.0625, 3.6875, 4.15625, 4.09375, 3.84375, 4.125, 3.90625, 4.125, 4.09375, 4.03125, 4.125, 4.0, 4.21875, 4.03125, 4.4375, 4.125, 4.03125, 4.21875, 3.921875, 4.15625, 4.28125, 4.21875, 3.96875, 3.921875, 3.953125, 4.21875, 4.09375, 4.0625, 3.921875, 4.15625, 3.609375, 3.9375, 4.03125, 4.125, 3.65625, 3.875, 3.8125, 3.9375, 4.15625, 3.953125, 3.953125, 4.0625, 4.1875, 3.984375, 3.90625, 4.0625, 4.125, 4.15625, 3.765625, 4.09375, 3.828125, 4.0, 3.828125, 3.828125, 3.859375, 3.84375, 3.828125, 4.03125, 4.25, 4.0625, 4.125, 4.15625, 3.796875, 4.21875, 3.890625, 4.1875, 3.734375, 3.703125, 4.21875, 3.703125, 4.0, 3.890625, 4.125, 4.21875, 4.25, 3.890625, 4.15625, 3.796875, 4.09375, 3.6875, 4.125, 3.84375, 4.09375, 4.0625, 3.921875, 4.03125, 3.59375, 3.84375, 3.953125, 4.03125, 3.546875, 4.0, 4.125, 4.125, 3.734375, 3.859375, 4.15625, 3.8125, 3.734375, 3.765625, 3.9375, 3.890625, 4.03125, 4.1875, 3.90625, 3.71875, 3.953125, 3.609375, 3.90625, 3.75, 3.9375, 3.671875, 3.84375, 3.84375, 3.796875, 3.6875, 3.9375, 4.0, 3.875, 3.390625, 3.765625, 3.703125, 3.828125, 3.640625, 3.65625, 3.90625, 3.6875, 3.40625, 3.828125, 3.9375, 3.75, 3.890625, 4.03125, 3.84375, 3.65625, 3.625, 3.75, 3.9375, 3.78125, 3.90625, 3.828125, 3.6875, 3.890625, 3.953125, 3.453125, 3.765625, 3.84375, 3.8125, 3.875, 3.546875, 3.5625, 3.828125, 3.703125, 3.78125, 3.90625, 3.640625, 4.21875, 3.578125, 3.875, 4.0, 3.734375, 3.703125, 3.875, 3.921875, 3.8125, 3.765625, 3.890625, 3.8125, 4.0625, 4.125, 3.84375, 3.953125, 3.984375, 3.8125, 3.984375, 3.875, 3.65625, 3.765625, 3.78125, 3.84375, 3.953125, 3.828125, 3.921875, 4.09375, 3.78125, 3.859375, 3.5625, 3.765625, 3.84375, 3.78125, 3.921875, 3.71875, 3.640625, 4.0, 3.84375, 3.578125, 3.828125, 3.9375, 3.953125, 4.0625, 3.765625, 3.9375, 3.90625, 3.9375, 3.515625, 3.734375, 3.703125, 3.796875, 3.65625, 3.5625, 4.0625, 3.546875, 3.8125, 3.9375, 3.765625, 3.828125, 3.53125, 3.40625, 3.859375, 4.0, 3.828125, 3.59375, 3.6875, 3.78125, 3.734375, 3.984375, 3.875, 3.671875, 3.734375, 3.8125, 3.53125, 3.71875, 3.765625, 3.890625, 4.03125, 3.96875, 3.609375, 3.5, 4.0625, 3.671875, 3.75, 3.875, 3.84375, 3.921875, 3.828125, 3.640625, 3.328125, 3.75, 3.8125, 3.90625, 3.609375, 3.828125, 4.0, 3.765625, 3.984375, 3.828125, 3.609375, 3.71875, 3.75, 3.5625, 3.796875, 3.9375, 4.1875, 4.0625, 3.671875, 3.515625, 3.46875, 3.375, 3.921875, 3.6875, 3.71875, 3.625, 3.53125, 3.28125, 3.28125, 3.4375, 3.75, 3.671875, 3.625, 3.671875, 3.78125, 3.765625, 3.8125, 3.625, 3.875, 3.421875, 3.734375, 3.4375, 3.8125, 3.890625, 3.671875, 3.8125, 3.671875, 3.828125, 3.953125, 3.65625, 3.3125, 3.671875, 3.75, 3.75, 3.640625, 3.71875, 3.484375, 3.515625, 3.78125, 3.3125, 3.546875, 3.53125, 3.625, 3.515625, 3.796875, 3.859375, 3.734375, 3.765625, 3.71875, 3.703125, 3.546875, 3.671875, 3.5625, 3.453125, 3.546875, 3.65625, 3.15625, 3.578125, 3.84375, 3.84375, 3.546875, 3.546875, 3.734375, 3.75, 3.84375, 3.9375, 3.484375, 3.65625, 3.75, 3.46875, 3.59375, 3.640625, 3.890625, 3.640625, 3.765625, 3.734375, 3.828125, 3.671875, 3.390625, 3.65625, 3.953125, 3.6875, 3.578125, 3.546875, 3.65625, 3.40625, 3.71875, 3.453125, 3.21875, 3.578125, 3.453125, 3.78125, 3.53125, 4.0, 3.40625, 3.78125, 3.65625, 3.625, 3.734375, 3.53125, 3.453125, 3.578125, 3.46875, 3.5, 3.6875, 3.796875, 3.421875, 3.4375, 3.71875, 3.328125, 3.703125, 3.59375, 3.65625, 3.375, 3.71875, 3.765625, 3.71875, 3.5, 3.546875, 3.671875, 3.578125, 3.15625, 3.359375, 3.390625, 3.6875, 3.46875, 3.640625, 3.359375, 3.546875, 3.875, 3.71875, 3.4375, 3.625, 3.296875, 3.640625, 3.671875, 3.65625, 3.8125, 3.78125, 3.625, 3.734375, 3.609375, 3.453125, 3.59375, 3.59375, 3.765625, 3.515625, 3.59375, 3.71875, 3.78125, 3.828125, 3.65625, 3.890625, 3.75, 3.6875, 3.625, 3.6875, 3.59375, 3.71875, 3.59375, 3.484375, 3.515625, 3.6875, 3.265625, 3.609375, 3.359375, 3.640625, 3.515625, 3.8125, 3.8125, 4.0, 3.640625, 3.796875, 3.421875, 3.46875, 3.5625, 3.484375, 3.375, 3.71875, 3.734375, 3.640625, 3.34375, 3.453125, 3.609375, 3.546875, 3.59375, 3.59375, 3.734375, 3.6875, 3.65625, 3.78125, 3.875, 3.515625, 3.5, 3.03125, 3.25, 3.609375, 3.375, 3.671875, 3.5625, 3.453125, 3.53125, 3.71875, 3.671875, 3.515625, 3.53125, 3.40625, 3.703125, 3.609375, 3.546875, 3.546875, 3.59375, 3.4375, 3.453125, 3.46875, 3.84375, 3.359375, 3.484375, 3.328125, 3.8125, 3.265625, 3.375, 3.34375, 3.484375, 3.796875, 3.53125, 3.53125, 3.703125, 3.65625, 3.46875, 3.59375, 3.609375, 3.34375, 3.59375, 3.515625, 3.46875, 3.484375, 3.734375, 3.484375, 3.78125, 3.3125, 3.75, 3.59375, 3.484375, 3.359375, 3.5625, 3.53125, 3.703125, 3.265625, 3.59375, 3.4375, 3.59375, 3.453125, 3.515625, 3.703125, 3.5625, 3.78125, 3.515625, 3.65625, 3.328125, 3.234375, 3.484375, 3.546875, 3.4375, 3.53125, 3.515625, 3.6875, 3.375, 3.484375, 3.578125, 3.6875, 3.375, 3.484375, 3.578125, 3.375, 3.421875, 3.65625, 3.734375, 3.5625, 3.5, 3.65625, 3.640625, 3.390625, 3.40625, 3.234375, 3.640625, 3.609375, 3.5, 3.265625, 3.765625, 3.65625, 3.4375, 3.78125, 3.546875, 3.46875, 3.953125, 3.765625, 3.5, 3.484375, 3.578125, 3.328125, 3.578125, 3.75, 3.640625, 3.5625, 3.234375, 3.40625, 3.390625, 3.703125, 3.46875, 3.640625, 3.40625, 3.609375, 3.859375, 3.625, 3.40625, 3.65625, 3.484375, 3.40625, 3.71875, 3.765625, 3.53125, 3.609375, 3.65625, 3.546875, 3.59375, 3.640625, 3.625, 3.78125, 3.6875, 3.71875, 3.265625, 3.53125, 3.703125, 3.234375, 3.625, 3.71875, 3.65625, 3.5625, 3.53125, 3.6875, 3.5, 3.40625, 3.6875, 3.296875, 3.34375, 3.4375, 3.734375, 3.5625, 3.578125, 3.453125, 3.625, 3.53125, 3.75, 3.625, 3.328125, 3.5625, 3.359375, 3.578125, 3.53125, 3.28125, 3.625, 3.671875, 3.796875, 3.578125, 3.40625, 3.421875, 3.734375, 3.609375, 3.375, 3.859375, 3.515625, 3.453125, 3.625, 3.640625, 3.5625, 3.703125, 3.265625, 3.75, 3.609375, 3.703125, 3.71875, 3.828125, 3.59375, 3.640625, 3.671875, 3.5, 3.578125, 3.546875, 3.78125, 3.109375, 3.515625, 3.640625, 3.84375, 3.5625, 3.515625, 3.59375, 3.3125, 3.671875, 3.5625, 3.125, 3.15625, 3.65625, 3.34375, 3.53125, 3.375, 3.40625, 3.625, 3.375, 3.15625, 3.546875, 3.640625, 3.265625, 3.359375, 3.578125, 3.65625, 3.6875, 3.953125, 3.296875, 3.765625, 3.265625, 3.53125, 3.46875, 3.453125, 3.78125, 3.421875, 3.640625, 3.640625, 3.4375, 3.453125, 3.546875, 3.21875, 3.421875, 3.328125, 3.25, 3.65625, 3.34375, 3.546875, 3.5625, 3.359375, 3.671875, 3.484375, 3.5, 3.265625, 3.515625, 3.625, 3.5625, 3.453125, 3.5625, 3.34375, 3.46875, 3.15625, 3.5625, 3.578125, 3.203125, 3.1875, 3.40625, 3.359375, 3.453125, 3.734375, 3.78125, 3.203125, 3.34375, 3.65625, 3.265625, 3.40625, 3.4375, 3.671875, 3.5, 3.3125, 3.453125, 3.59375, 3.53125, 3.328125, 3.3125, 3.65625, 3.09375, 3.625, 3.53125, 3.484375, 3.734375, 3.28125, 3.34375, 3.046875, 3.59375, 3.109375, 3.375, 3.359375, 3.390625, 3.34375, 3.546875, 3.21875, 3.609375, 3.46875, 3.53125, 3.71875, 3.296875, 3.515625, 3.265625, 3.359375, 3.515625, 3.515625, 3.390625, 3.171875, 3.515625, 3.1875, 3.734375, 3.4375, 3.21875, 3.40625, 3.34375, 3.34375, 3.484375, 3.34375, 3.359375, 3.484375, 3.5, 3.59375, 3.3125, 3.4375, 3.296875, 3.53125, 3.234375, 3.59375, 3.359375, 3.5, 3.609375, 3.40625, 3.390625, 3.359375, 3.3125, 3.375, 3.203125, 3.078125, 3.390625, 3.5, 3.4375, 3.15625, 3.15625, 3.234375, 3.421875, 3.453125, 3.3125, 3.4375, 3.25, 3.4375, 3.21875, 3.5625, 3.65625, 3.328125, 3.484375, 3.59375, 3.390625, 3.515625, 3.03125, 3.4375, 3.09375, 3.3125, 3.28125, 3.625, 3.53125, 3.515625, 3.671875, 3.25, 3.5, 3.421875, 3.5625, 3.453125, 3.53125, 3.390625, 3.46875, 3.3125, 3.453125, 3.5, 3.578125, 3.109375, 3.3125, 3.53125, 3.75, 3.40625, 3.625, 3.5625, 3.28125, 3.359375, 3.40625, 3.46875, 3.515625, 3.53125, 3.578125, 3.21875, 3.4375, 3.59375, 3.328125, 3.5, 3.328125, 3.578125, 3.4375, 3.75, 3.125, 3.296875, 3.703125, 3.671875, 3.375, 3.375, 3.578125, 3.46875, 3.34375, 3.296875, 3.390625, 3.515625, 3.5625, 3.4375, 3.5625, 3.59375, 3.359375, 3.3125, 3.21875, 3.546875, 3.265625, 3.34375, 3.359375, 3.515625, 3.171875, 3.671875, 3.265625, 3.296875, 3.53125, 3.546875, 3.46875, 3.5625, 3.515625, 3.390625, 3.46875, 3.046875, 3.375, 3.53125, 3.3125, 3.515625, 3.109375, 3.328125, 3.203125, 3.296875, 3.390625, 3.1875, 3.515625, 3.515625, 3.328125, 3.390625, 3.234375, 3.34375, 3.25, 3.234375, 3.28125, 3.5, 3.421875, 3.65625, 3.4375, 3.421875, 3.453125, 3.34375, 3.25, 3.203125, 3.375, 3.46875, 3.296875, 3.296875, 3.3125, 3.59375, 3.390625, 3.328125, 3.375, 3.265625, 3.34375, 3.484375, 3.3125, 3.359375, 3.40625, 3.484375, 3.5, 3.3125, 3.5, 3.53125, 3.625, 3.328125, 3.390625, 3.46875, 3.609375, 3.34375, 3.515625, 3.5, 3.234375, 3.265625, 3.265625, 3.625, 3.71875, 3.1875, 3.53125, 3.484375, 3.203125, 3.359375, 3.25, 3.53125, 3.328125, 3.46875, 3.546875, 3.140625, 3.140625, 3.40625, 3.53125, 3.59375, 3.59375, 3.390625, 3.109375, 3.46875, 3.53125, 3.53125, 3.296875, 3.34375, 3.515625, 3.734375, 3.421875, 3.46875, 3.359375, 3.546875, 3.15625, 3.546875, 3.328125, 3.265625, 3.578125, 3.265625, 3.421875, 3.3125, 3.625, 3.6875, 3.359375, 3.609375, 3.359375, 3.09375, 3.421875, 3.109375, 3.453125, 3.28125, 3.5625, 3.515625, 3.171875, 3.234375, 3.375, 3.453125, 3.640625, 3.375, 3.328125, 3.0, 3.46875, 3.171875, 3.34375, 3.484375, 3.359375, 3.640625, 3.6875, 3.359375, 3.40625, 3.5, 3.546875, 3.25, 3.515625, 3.4375, 3.375, 3.390625, 3.203125, 3.1875, 3.234375, 3.125, 3.4375, 3.53125, 3.46875, 3.3125, 3.3125, 3.65625, 3.1875, 3.65625, 3.53125, 3.421875, 3.578125, 3.28125, 3.484375, 3.625, 3.609375, 3.34375, 3.484375, 3.15625, 3.25, 3.484375, 3.484375, 3.375, 2.9375, 3.203125, 3.53125, 3.265625, 3.375, 3.21875, 3.359375, 3.296875, 3.15625, 3.546875, 3.296875, 3.421875, 3.46875, 3.171875, 3.03125, 3.359375, 3.296875, 3.484375, 3.453125, 3.4375, 3.328125, 3.125, 2.9375, 3.0, 3.296875, 3.3125, 3.171875, 3.265625, 3.53125, 3.125, 3.515625, 3.359375, 3.625, 2.859375, 3.390625, 3.65625, 3.515625, 3.125, 2.96875, 3.328125, 3.1875, 3.1875, 3.015625, 3.109375, 3.25, 3.125, 3.390625, 3.375, 3.5, 3.375, 2.8125, 3.34375, 3.203125, 3.359375, 3.34375, 3.703125, 3.234375, 3.375, 3.328125, 3.359375, 3.3125, 3.4375, 3.484375, 3.0625, 3.09375, 3.5625, 3.6875, 3.3125, 3.359375, 3.171875, 3.34375, 3.421875, 3.296875, 3.4375, 3.453125, 3.421875, 3.4375, 3.671875, 3.0625, 3.28125, 3.421875, 3.5625, 3.40625, 3.203125, 3.03125, 3.328125, 3.609375, 3.359375, 3.515625, 3.328125, 3.46875, 3.328125, 3.03125, 3.8125, 3.296875, 3.21875, 3.296875, 3.5, 3.171875, 3.203125, 3.265625, 3.59375, 3.40625, 3.421875, 3.15625, 3.203125, 3.34375, 3.375, 3.25, 3.625, 3.140625, 3.28125, 3.015625, 3.4375, 3.578125, 3.359375, 3.234375, 3.21875, 3.3125, 3.390625, 3.21875, 3.140625, 3.234375, 3.34375, 3.484375, 3.3125, 3.359375, 3.1875, 3.15625, 3.40625, 3.375, 3.625, 3.359375, 3.34375, 3.390625, 3.171875, 3.4375, 3.328125, 3.28125, 3.578125, 3.453125, 3.265625, 3.125, 3.140625, 3.28125, 3.234375, 3.125, 3.140625, 3.375, 2.90625, 3.25, 3.265625, 3.3125, 3.078125, 3.53125, 3.390625, 3.484375, 2.90625, 3.34375, 3.359375, 3.609375, 3.234375, 3.453125, 3.484375, 3.25, 3.28125, 3.234375, 3.234375, 3.4375, 3.296875, 3.3125, 3.265625, 3.390625, 3.59375, 3.21875, 3.34375, 3.21875, 3.296875, 3.125, 3.265625, 3.03125, 3.234375, 3.046875, 3.1875, 3.390625, 3.359375, 3.28125, 3.390625, 3.21875, 3.140625, 3.25, 3.25, 3.390625, 3.46875, 3.28125, 3.421875, 3.03125, 3.046875, 3.140625, 3.078125, 3.15625, 3.0, 2.875, 3.078125, 3.203125, 3.203125, 3.328125, 3.265625, 3.15625, 3.234375, 3.375, 3.484375, 3.203125, 2.84375, 3.328125, 3.34375, 3.25, 3.46875, 3.265625, 3.234375, 3.34375, 3.109375, 3.296875, 3.359375, 3.515625, 3.15625, 3.15625, 3.328125, 3.5, 3.375, 3.46875, 3.171875, 3.28125, 3.46875, 3.359375, 3.21875, 3.234375, 3.1875, 3.265625, 3.09375, 3.5, 3.265625, 3.546875, 3.109375, 3.09375, 3.15625, 3.46875, 3.171875, 3.375, 3.609375, 3.046875, 3.5, 3.171875, 3.140625, 2.890625, 3.171875, 3.234375, 3.296875, 3.125, 3.234375, 3.5, 3.265625, 3.15625, 3.296875, 3.46875, 3.390625, 3.140625, 3.359375, 3.3125, 3.3125, 3.125, 3.515625, 3.328125, 3.265625, 3.328125, 3.40625, 3.234375, 3.3125, 3.421875, 3.265625, 2.953125, 3.03125, 3.5, 3.234375, 3.15625, 3.0, 3.078125, 3.453125, 3.3125, 3.328125, 3.40625, 3.21875, 3.140625, 3.171875, 3.125, 3.296875, 3.453125, 3.453125, 3.296875, 3.640625, 3.25, 3.265625, 3.234375, 3.15625, 3.4375, 3.09375, 3.234375, 3.40625, 3.515625, 3.328125, 3.578125, 3.34375, 3.484375, 3.390625, 3.234375, 3.390625, 3.359375, 3.09375, 3.1875, 2.890625, 3.171875, 3.078125, 3.15625, 3.0625, 3.28125, 3.578125, 3.390625, 3.34375, 3.328125, 3.234375, 3.28125, 3.5, 3.140625, 3.203125, 3.203125, 2.984375, 3.40625, 3.359375, 3.0, 3.015625, 3.203125, 3.421875, 3.421875, 3.3125, 3.328125, 3.3125, 3.3125, 3.078125, 3.328125, 2.765625, 3.453125, 3.453125, 3.46875, 3.21875, 3.015625, 3.4375, 3.1875, 3.21875, 3.0, 3.203125, 3.1875, 3.375, 3.171875, 3.328125, 3.328125, 3.296875, 3.375, 3.3125, 3.40625, 3.09375, 3.328125, 3.15625, 3.375, 3.375, 3.171875, 3.140625, 3.375, 3.375, 3.28125, 3.28125, 3.421875, 3.421875, 3.5, 3.25, 3.421875, 3.078125, 3.25, 3.5, 3.21875, 3.125, 3.3125, 3.140625, 3.375, 3.59375, 3.46875, 3.109375, 3.421875, 3.015625, 3.203125, 3.03125, 3.390625, 3.140625, 3.203125, 3.296875, 2.890625, 3.390625, 3.296875, 2.953125, 3.296875, 3.125, 3.296875, 3.21875, 3.15625, 3.234375, 3.296875, 3.0, 3.3125, 3.40625, 3.140625, 3.0, 3.203125, 3.28125, 2.75, 3.375, 3.234375, 3.015625, 3.0625, 3.109375, 3.140625, 3.53125, 3.0625, 3.28125, 3.34375, 3.203125, 3.015625, 3.109375, 3.21875, 3.21875, 3.171875, 3.15625, 3.375, 3.265625, 2.96875, 3.40625, 3.078125, 3.390625, 3.21875, 3.21875, 3.078125, 3.1875, 3.203125, 3.28125, 3.171875, 2.984375, 3.046875, 3.140625, 3.28125, 2.984375, 3.234375, 3.40625, 3.09375, 3.171875, 3.171875, 3.3125, 3.265625, 3.125, 3.34375, 3.296875, 2.9375, 3.40625, 3.265625, 3.359375, 3.1875, 3.25, 3.0625, 3.15625, 3.28125, 3.140625, 3.40625, 3.40625, 3.09375, 3.359375, 3.15625, 3.03125, 3.203125, 3.203125, 3.078125, 3.171875, 3.21875, 3.359375, 3.125, 3.109375, 3.203125, 3.421875, 3.078125, 3.171875, 3.078125, 3.171875, 3.15625, 3.28125, 3.203125, 3.234375, 3.375, 2.9375, 3.265625, 3.53125, 3.125, 2.984375, 3.265625, 3.265625, 2.921875, 2.96875, 3.25, 2.953125, 3.46875, 3.078125, 3.203125, 3.21875, 3.046875, 2.703125, 3.34375, 2.953125, 2.96875, 3.421875, 3.109375, 3.015625, 3.203125, 3.15625, 3.09375, 3.109375, 3.046875, 3.0625, 3.21875, 3.265625, 3.140625, 3.015625, 3.078125, 3.046875, 3.15625, 3.296875, 2.78125, 3.0, 3.140625, 3.09375, 3.171875, 3.125, 3.421875, 2.921875, 3.15625, 3.046875, 3.3125, 3.140625, 3.296875, 3.078125, 2.734375, 3.125, 3.109375, 3.3125, 3.0, 3.359375, 3.0625, 3.0, 3.203125, 3.375, 2.59375, 3.265625, 3.078125, 3.234375, 2.890625, 3.03125, 3.15625, 2.734375, 3.3125, 3.28125, 2.953125, 3.203125, 3.109375, 3.203125, 3.265625, 3.28125, 3.0625, 3.328125, 3.1875, 3.015625, 3.171875, 2.921875, 3.140625, 3.125, 3.40625, 3.21875, 3.1875, 2.84375, 3.40625, 3.296875, 3.046875, 2.796875, 2.984375, 3.453125, 3.234375, 3.203125, 3.265625, 3.25, 3.171875, 3.046875, 3.15625, 2.96875, 3.125, 2.90625, 3.265625, 3.15625, 3.28125, 3.171875, 3.34375, 3.15625, 2.9375, 3.09375, 3.125, 3.203125, 3.203125, 3.1875, 3.0625, 3.28125, 3.1875, 3.09375, 2.890625]","[56320.0, 2112.0, 1552.0, 1328.0, 688.0, 688.0, 1064.0, 828.0, 884.0, 828.0, 756.0, 688.0, 780.0, 756.0, 608.0, 588.0, 568.0, 624.0, 756.0, 664.0, 520.0, 416.0, 392.0, 392.0, 458.0, 356.0, 458.0, 334.0, 488.0, 314.0, 472.0, 356.0, 334.0, 380.0, 346.0, 380.0, 458.0, 230.0, 356.0, 230.0, 245.0, 253.0, 245.0, 314.0, 245.0, 278.0, 334.0, 223.0, 253.0, 444.0, 304.0, 304.0, 237.0, 286.0, 245.0, 237.0, 197.0, 253.0, 230.0, 203.0, 209.0, 168.0, 237.0, 253.0, 260.0, 260.0, 168.0, 135.0, 149.0, 185.0, 174.0, 197.0, 197.0, 216.0, 179.0, 163.0, 149.0, 197.0, 158.0, 185.0, 174.0, 123.0, 179.0, 115.5, 179.0, 158.0, 174.0, 191.0, 153.0, 158.0, 163.0, 163.0, 191.0, 197.0, 93.0, 153.0, 158.0, 135.0, 127.0, 144.0, 153.0, 179.0, 112.0, 131.0, 127.0, 119.5, 131.0, 131.0, 123.0, 131.0, 140.0, 112.0, 112.0, 108.5, 93.0, 108.5, 131.0, 102.0, 135.0, 153.0, 112.0, 119.5, 105.5, 123.0, 99.0, 96.0, 90.0, 84.5, 96.0, 105.5, 82.0, 72.5, 108.5, 90.0, 66.0, 99.0, 96.0, 77.0, 99.0, 82.0, 68.0, 79.5, 87.5, 115.5, 99.0, 79.5, 99.0, 72.5, 77.0, 72.5, 87.5, 87.5, 105.5, 84.5, 87.5, 90.0, 105.5, 84.5, 79.5, 102.0, 102.0, 99.0, 77.0, 93.0, 72.5, 90.0, 64.0, 70.0, 77.0, 102.0, 84.5, 90.0, 87.5, 93.0, 87.5, 82.0, 52.25, 84.5, 102.0, 68.0, 72.5, 82.0, 77.0, 77.0, 72.5, 58.25, 66.0, 47.5, 77.0, 72.5, 87.5, 56.25, 47.5, 77.0, 70.0, 72.5, 82.0, 66.0, 62.0, 82.0, 46.0, 72.5, 82.0, 62.0, 84.5, 79.5, 62.0, 82.0, 60.0, 62.0, 68.0, 70.0, 68.0, 90.0, 56.25, 68.0, 62.0, 53.75, 62.0, 64.0, 53.0, 68.0, 53.0, 74.5, 77.0, 79.5, 60.0, 68.0, 82.0, 54.75, 66.0, 64.0, 74.5, 74.5, 46.75, 43.25, 56.25, 70.0, 72.5, 51.25, 62.0, 52.25, 66.0, 42.0, 66.0, 62.0, 54.75, 49.0, 62.0, 68.0, 53.75, 64.0, 46.75, 56.25, 62.0, 48.25, 53.0, 58.25, 47.5, 54.75, 64.0, 70.0, 54.75, 58.25, 62.0, 58.25, 40.0, 64.0, 60.0, 46.75, 62.0, 49.75, 62.0, 60.0, 56.25, 62.0, 54.75, 68.0, 56.25, 84.5, 62.0, 56.25, 68.0, 50.5, 64.0, 72.5, 68.0, 53.0, 50.5, 52.25, 68.0, 60.0, 58.25, 50.5, 64.0, 37.0, 51.25, 56.25, 62.0, 38.75, 48.25, 45.25, 51.25, 64.0, 52.25, 52.25, 58.25, 66.0, 53.75, 49.75, 58.25, 62.0, 64.0, 43.25, 60.0, 46.0, 54.75, 46.0, 46.0, 47.5, 46.75, 46.0, 56.25, 70.0, 58.25, 62.0, 64.0, 44.5, 68.0, 49.0, 66.0, 42.0, 40.5, 68.0, 40.5, 54.75, 49.0, 62.0, 68.0, 70.0, 49.0, 64.0, 44.5, 60.0, 40.0, 62.0, 46.75, 60.0, 58.25, 50.5, 56.25, 36.5, 46.75, 52.25, 56.25, 34.75, 54.75, 62.0, 62.0, 42.0, 47.5, 64.0, 45.25, 42.0, 43.25, 51.25, 49.0, 56.25, 66.0, 49.75, 41.25, 52.25, 37.0, 49.75, 42.5, 51.25, 39.25, 46.75, 46.75, 44.5, 40.0, 51.25, 54.75, 48.25, 29.75, 43.25, 40.5, 46.0, 38.25, 38.75, 49.75, 40.0, 30.125, 46.0, 51.25, 42.5, 49.0, 56.25, 46.75, 38.75, 37.5, 42.5, 51.25, 44.0, 49.75, 46.0, 40.0, 49.0, 52.25, 31.625, 43.25, 46.75, 45.25, 48.25, 34.75, 35.25, 46.0, 40.5, 44.0, 49.75, 38.25, 68.0, 35.75, 48.25, 54.75, 42.0, 40.5, 48.25, 50.5, 45.25, 43.25, 49.0, 45.25, 58.25, 62.0, 46.75, 52.25, 53.75, 45.25, 53.75, 48.25, 38.75, 43.25, 44.0, 46.75, 52.25, 46.0, 50.5, 60.0, 44.0, 47.5, 35.25, 43.25, 46.75, 44.0, 50.5, 41.25, 38.25, 54.75, 46.75, 35.75, 46.0, 51.25, 52.25, 58.25, 43.25, 51.25, 49.75, 51.25, 33.75, 42.0, 40.5, 44.5, 38.75, 35.25, 58.25, 34.75, 45.25, 51.25, 43.25, 46.0, 34.25, 30.125, 47.5, 54.75, 46.0, 36.5, 40.0, 44.0, 42.0, 53.75, 48.25, 39.25, 42.0, 45.25, 34.25, 41.25, 43.25, 49.0, 56.25, 53.0, 37.0, 33.25, 58.25, 39.25, 42.5, 48.25, 46.75, 50.5, 46.0, 38.25, 27.875, 42.5, 45.25, 49.75, 37.0, 46.0, 54.75, 43.25, 53.75, 46.0, 37.0, 41.25, 42.5, 35.25, 44.5, 51.25, 66.0, 58.25, 39.25, 33.75, 32.0, 29.25, 50.5, 40.0, 41.25, 37.5, 34.25, 26.625, 26.625, 31.125, 42.5, 39.25, 37.5, 39.25, 44.0, 43.25, 45.25, 37.5, 48.25, 30.625, 42.0, 31.125, 45.25, 49.0, 39.25, 45.25, 39.25, 46.0, 52.25, 38.75, 27.5, 39.25, 42.5, 42.5, 38.25, 41.25, 32.5, 33.75, 44.0, 27.5, 34.75, 34.25, 37.5, 33.75, 44.5, 47.5, 42.0, 43.25, 41.25, 40.5, 34.75, 39.25, 35.25, 31.625, 34.75, 38.75, 23.5, 35.75, 46.75, 46.75, 34.75, 34.75, 42.0, 42.5, 46.75, 51.25, 32.5, 38.75, 42.5, 32.0, 36.5, 38.25, 49.0, 38.25, 43.25, 42.0, 46.0, 39.25, 29.75, 38.75, 52.25, 40.0, 35.75, 34.75, 38.75, 30.125, 41.25, 31.625, 25.0, 35.75, 31.625, 44.0, 34.25, 54.75, 30.125, 44.0, 38.75, 37.5, 42.0, 34.25, 31.625, 35.75, 32.0, 33.25, 40.0, 44.5, 30.625, 31.125, 41.25, 27.875, 40.5, 36.5, 38.75, 29.25, 41.25, 43.25, 41.25, 33.25, 34.75, 39.25, 35.75, 23.5, 28.75, 29.75, 40.0, 32.0, 38.25, 28.75, 34.75, 48.25, 41.25, 31.125, 37.5, 27.0, 38.25, 39.25, 38.75, 45.25, 44.0, 37.5, 42.0, 37.0, 31.625, 36.5, 36.5, 43.25, 33.75, 36.5, 41.25, 44.0, 46.0, 38.75, 49.0, 42.5, 40.0, 37.5, 40.0, 36.5, 41.25, 36.5, 32.5, 33.75, 40.0, 26.25, 37.0, 28.75, 38.25, 33.75, 45.25, 45.25, 54.75, 38.25, 44.5, 30.625, 32.0, 35.25, 32.5, 29.25, 41.25, 42.0, 38.25, 28.375, 31.625, 37.0, 34.75, 36.5, 36.5, 42.0, 40.0, 38.75, 44.0, 48.25, 33.75, 33.25, 20.75, 25.75, 37.0, 29.25, 39.25, 35.25, 31.625, 34.25, 41.25, 39.25, 33.75, 34.25, 30.125, 40.5, 37.0, 34.75, 34.75, 36.5, 31.125, 31.625, 32.0, 46.75, 28.75, 32.5, 27.875, 45.25, 26.25, 29.25, 28.375, 32.5, 44.5, 34.25, 34.25, 40.5, 38.75, 32.0, 36.5, 37.0, 28.375, 36.5, 33.75, 32.0, 32.5, 42.0, 32.5, 44.0, 27.5, 42.5, 36.5, 32.5, 28.75, 35.25, 34.25, 40.5, 26.25, 36.5, 31.125, 36.5, 31.625, 33.75, 40.5, 35.25, 44.0, 33.75, 38.75, 27.875, 25.375, 32.5, 34.75, 31.125, 34.25, 33.75, 40.0, 29.25, 32.5, 35.75, 40.0, 29.25, 32.5, 35.75, 29.25, 30.625, 38.75, 42.0, 35.25, 33.25, 38.75, 38.25, 29.75, 30.125, 25.375, 38.25, 37.0, 33.25, 26.25, 43.25, 38.75, 31.125, 44.0, 34.75, 32.0, 52.25, 43.25, 33.25, 32.5, 35.75, 27.875, 35.75, 42.5, 38.25, 35.25, 25.375, 30.125, 29.75, 40.5, 32.0, 38.25, 30.125, 37.0, 47.5, 37.5, 30.125, 38.75, 32.5, 30.125, 41.25, 43.25, 34.25, 37.0, 38.75, 34.75, 36.5, 38.25, 37.5, 44.0, 40.0, 41.25, 26.25, 34.25, 40.5, 25.375, 37.5, 41.25, 38.75, 35.25, 34.25, 40.0, 33.25, 30.125, 40.0, 27.0, 28.375, 31.125, 42.0, 35.25, 35.75, 31.625, 37.5, 34.25, 42.5, 37.5, 27.875, 35.25, 28.75, 35.75, 34.25, 26.625, 37.5, 39.25, 44.5, 35.75, 30.125, 30.625, 42.0, 37.0, 29.25, 47.5, 33.75, 31.625, 37.5, 38.25, 35.25, 40.5, 26.25, 42.5, 37.0, 40.5, 41.25, 46.0, 36.5, 38.25, 39.25, 33.25, 35.75, 34.75, 44.0, 22.375, 33.75, 38.25, 46.75, 35.25, 33.75, 36.5, 27.5, 39.25, 35.25, 22.75, 23.5, 38.75, 28.375, 34.25, 29.25, 30.125, 37.5, 29.25, 23.5, 34.75, 38.25, 26.25, 28.75, 35.75, 38.75, 40.0, 52.25, 27.0, 43.25, 26.25, 34.25, 32.0, 31.625, 44.0, 30.625, 38.25, 38.25, 31.125, 31.625, 34.75, 25.0, 30.625, 27.875, 25.75, 38.75, 28.375, 34.75, 35.25, 28.75, 39.25, 32.5, 33.25, 26.25, 33.75, 37.5, 35.25, 31.625, 35.25, 28.375, 32.0, 23.5, 35.25, 35.75, 24.625, 24.25, 30.125, 28.75, 31.625, 42.0, 44.0, 24.625, 28.375, 38.75, 26.25, 30.125, 31.125, 39.25, 33.25, 27.5, 31.625, 36.5, 34.25, 27.875, 27.5, 38.75, 22.125, 37.5, 34.25, 32.5, 42.0, 26.625, 28.375, 21.0, 36.5, 22.375, 29.25, 28.75, 29.75, 28.375, 34.75, 25.0, 37.0, 32.0, 34.25, 41.25, 27.0, 33.75, 26.25, 28.75, 33.75, 33.75, 29.75, 23.875, 33.75, 24.25, 42.0, 31.125, 25.0, 30.125, 28.375, 28.375, 32.5, 28.375, 28.75, 32.5, 33.25, 36.5, 27.5, 31.125, 27.0, 34.25, 25.375, 36.5, 28.75, 33.25, 37.0, 30.125, 29.75, 28.75, 27.5, 29.25, 24.625, 21.75, 29.75, 33.25, 31.125, 23.5, 23.5, 25.375, 30.625, 31.625, 27.5, 31.125, 25.75, 31.125, 25.0, 35.25, 38.75, 27.875, 32.5, 36.5, 29.75, 33.75, 20.75, 31.125, 22.125, 27.5, 26.625, 37.5, 34.25, 33.75, 39.25, 25.75, 33.25, 30.625, 35.25, 31.625, 34.25, 29.75, 32.0, 27.5, 31.625, 33.25, 35.75, 22.375, 27.5, 34.25, 42.5, 30.125, 37.5, 35.25, 26.625, 28.75, 30.125, 32.0, 33.75, 34.25, 35.75, 25.0, 31.125, 36.5, 27.875, 33.25, 27.875, 35.75, 31.125, 42.5, 22.75, 27.0, 40.5, 39.25, 29.25, 29.25, 35.75, 32.0, 28.375, 27.0, 29.75, 33.75, 35.25, 31.125, 35.25, 36.5, 28.75, 27.5, 25.0, 34.75, 26.25, 28.375, 28.75, 33.75, 23.875, 39.25, 26.25, 27.0, 34.25, 34.75, 32.0, 35.25, 33.75, 29.75, 32.0, 21.0, 29.25, 34.25, 27.5, 33.75, 22.375, 27.875, 24.625, 27.0, 29.75, 24.25, 33.75, 33.75, 27.875, 29.75, 25.375, 28.375, 25.75, 25.375, 26.625, 33.25, 30.625, 38.75, 31.125, 30.625, 31.625, 28.375, 25.75, 24.625, 29.25, 32.0, 27.0, 27.0, 27.5, 36.5, 29.75, 27.875, 29.25, 26.25, 28.375, 32.5, 27.5, 28.75, 30.125, 32.5, 33.25, 27.5, 33.25, 34.25, 37.5, 27.875, 29.75, 32.0, 37.0, 28.375, 33.75, 33.25, 25.375, 26.25, 26.25, 37.5, 41.25, 24.25, 34.25, 32.5, 24.625, 28.75, 25.75, 34.25, 27.875, 32.0, 34.75, 23.125, 23.125, 30.125, 34.25, 36.5, 36.5, 29.75, 22.375, 32.0, 34.25, 34.25, 27.0, 28.375, 33.75, 42.0, 30.625, 32.0, 28.75, 34.75, 23.5, 34.75, 27.875, 26.25, 35.75, 26.25, 30.625, 27.5, 37.5, 40.0, 28.75, 37.0, 28.75, 22.125, 30.625, 22.375, 31.625, 26.625, 35.25, 33.75, 23.875, 25.375, 29.25, 31.625, 38.25, 29.25, 27.875, 20.125, 32.0, 23.875, 28.375, 32.5, 28.75, 38.25, 40.0, 28.75, 30.125, 33.25, 34.75, 25.75, 33.75, 31.125, 29.25, 29.75, 24.625, 24.25, 25.375, 22.75, 31.125, 34.25, 32.0, 27.5, 27.5, 38.75, 24.25, 38.75, 34.25, 30.625, 35.75, 26.625, 32.5, 37.5, 37.0, 28.375, 32.5, 23.5, 25.75, 32.5, 32.5, 29.25, 18.875, 24.625, 34.25, 26.25, 29.25, 25.0, 28.75, 27.0, 23.5, 34.75, 27.0, 30.625, 32.0, 23.875, 20.75, 28.75, 27.0, 32.5, 31.625, 31.125, 27.875, 22.75, 18.875, 20.125, 27.0, 27.5, 23.875, 26.25, 34.25, 22.75, 33.75, 28.75, 37.5, 17.5, 29.75, 38.75, 33.75, 22.75, 19.5, 27.875, 24.25, 24.25, 20.375, 22.375, 25.75, 22.75, 29.75, 29.25, 33.25, 29.25, 16.625, 28.375, 24.625, 28.75, 28.375, 40.5, 25.375, 29.25, 27.875, 28.75, 27.5, 31.125, 32.5, 21.375, 22.125, 35.25, 40.0, 27.5, 28.75, 23.875, 28.375, 30.625, 27.0, 31.125, 31.625, 30.625, 31.125, 39.25, 21.375, 26.625, 30.625, 35.25, 30.125, 24.625, 20.75, 27.875, 37.0, 28.75, 33.75, 27.875, 32.0, 27.875, 20.75, 45.25, 27.0, 25.0, 27.0, 33.25, 23.875, 24.625, 26.25, 36.5, 30.125, 30.625, 23.5, 24.625, 28.375, 29.25, 25.75, 37.5, 23.125, 26.625, 20.375, 31.125, 35.75, 28.75, 25.375, 25.0, 27.5, 29.75, 25.0, 23.125, 25.375, 28.375, 32.5, 27.5, 28.75, 24.25, 23.5, 30.125, 29.25, 37.5, 28.75, 28.375, 29.75, 23.875, 31.125, 27.875, 26.625, 35.75, 31.625, 26.25, 22.75, 23.125, 26.625, 25.375, 22.75, 23.125, 29.25, 18.25, 25.75, 26.25, 27.5, 21.75, 34.25, 29.75, 32.5, 18.25, 28.375, 28.75, 37.0, 25.375, 31.625, 32.5, 25.75, 26.625, 25.375, 25.375, 31.125, 27.0, 27.5, 26.25, 29.75, 36.5, 25.0, 28.375, 25.0, 27.0, 22.75, 26.25, 20.75, 25.375, 21.0, 24.25, 29.75, 28.75, 26.625, 29.75, 25.0, 23.125, 25.75, 25.75, 29.75, 32.0, 26.625, 30.625, 20.75, 21.0, 23.125, 21.75, 23.5, 20.125, 17.75, 21.75, 24.625, 24.625, 27.875, 26.25, 23.5, 25.375, 29.25, 32.5, 24.625, 17.25, 27.875, 28.375, 25.75, 32.0, 26.25, 25.375, 28.375, 22.375, 27.0, 28.75, 33.75, 23.5, 23.5, 27.875, 33.25, 29.25, 32.0, 23.875, 26.625, 32.0, 28.75, 25.0, 25.375, 24.25, 26.25, 22.125, 33.25, 26.25, 34.75, 22.375, 22.125, 23.5, 32.0, 23.875, 29.25, 37.0, 21.0, 33.25, 23.875, 23.125, 18.0, 23.875, 25.375, 27.0, 22.75, 25.375, 33.25, 26.25, 23.5, 27.0, 32.0, 29.75, 23.125, 28.75, 27.5, 27.5, 22.75, 33.75, 27.875, 26.25, 27.875, 30.125, 25.375, 27.5, 30.625, 26.25, 19.125, 20.75, 33.25, 25.375, 23.5, 20.125, 21.75, 31.625, 27.5, 27.875, 30.125, 25.0, 23.125, 23.875, 22.75, 27.0, 31.625, 31.625, 27.0, 38.25, 25.75, 26.25, 25.375, 23.5, 31.125, 22.125, 25.375, 30.125, 33.75, 27.875, 35.75, 28.375, 32.5, 29.75, 25.375, 29.75, 28.75, 22.125, 24.25, 18.0, 23.875, 21.75, 23.5, 21.375, 26.625, 35.75, 29.75, 28.375, 27.875, 25.375, 26.625, 33.25, 23.125, 24.625, 24.625, 19.75, 30.125, 28.75, 20.125, 20.375, 24.625, 30.625, 30.625, 27.5, 27.875, 27.5, 27.5, 21.75, 27.875, 15.875, 31.625, 31.625, 32.0, 25.0, 20.375, 31.125, 24.25, 25.0, 20.125, 24.625, 24.25, 29.25, 23.875, 27.875, 27.875, 27.0, 29.25, 27.5, 30.125, 22.125, 27.875, 23.5, 29.25, 29.25, 23.875, 23.125, 29.25, 29.25, 26.625, 26.625, 30.625, 30.625, 33.25, 25.75, 30.625, 21.75, 25.75, 33.25, 25.0, 22.75, 27.5, 23.125, 29.25, 36.5, 32.0, 22.375, 30.625, 20.375, 24.625, 20.75, 29.75, 23.125, 24.625, 27.0, 18.0, 29.75, 27.0, 19.125, 27.0, 22.75, 27.0, 25.0, 23.5, 25.375, 27.0, 20.125, 27.5, 30.125, 23.125, 20.125, 24.625, 26.625, 15.625, 29.25, 25.375, 20.375, 21.375, 22.375, 23.125, 34.25, 21.375, 26.625, 28.375, 24.625, 20.375, 22.375, 25.0, 25.0, 23.875, 23.5, 29.25, 26.25, 19.5, 30.125, 21.75, 29.75, 25.0, 25.0, 21.75, 24.25, 24.625, 26.625, 23.875, 19.75, 21.0, 23.125, 26.625, 19.75, 25.375, 30.125, 22.125, 23.875, 23.875, 27.5, 26.25, 22.75, 28.375, 27.0, 18.875, 30.125, 26.25, 28.75, 24.25, 25.75, 21.375, 23.5, 26.625, 23.125, 30.125, 30.125, 22.125, 28.75, 23.5, 20.75, 24.625, 24.625, 21.75, 23.875, 25.0, 28.75, 22.75, 22.375, 24.625, 30.625, 21.75, 23.875, 21.75, 23.875, 23.5, 26.625, 24.625, 25.375, 29.25, 18.875, 26.25, 34.25, 22.75, 19.75, 26.25, 26.25, 18.625, 19.5, 25.75, 19.125, 32.0, 21.75, 24.625, 25.0, 21.0, 14.9375, 28.375, 19.125, 19.5, 30.625, 22.375, 20.375, 24.625, 23.5, 22.125, 22.375, 21.0, 21.375, 25.0, 26.25, 23.125, 20.375, 21.75, 21.0, 23.5, 27.0, 16.125, 20.125, 23.125, 22.125, 23.875, 22.75, 30.625, 18.625, 23.5, 21.0, 27.5, 23.125, 27.0, 21.75, 15.4375, 22.75, 22.375, 27.5, 20.125, 28.75, 21.375, 20.125, 24.625, 29.25, 13.375, 26.25, 21.75, 25.375, 18.0, 20.75, 23.5, 15.4375, 27.5, 26.625, 19.125, 24.625, 22.375, 24.625, 26.25, 26.625, 21.375, 27.875, 24.25, 20.375, 23.875, 18.625, 23.125, 22.75, 30.125, 25.0, 24.25, 17.25, 30.125, 27.0, 21.0, 16.375, 19.75, 31.625, 25.375, 24.625, 26.25, 25.75, 23.875, 21.0, 23.5, 19.5, 22.75, 18.25, 26.25, 23.5, 26.625, 23.875, 28.375, 23.5, 18.875, 22.125, 22.75, 24.625, 24.625, 24.25, 21.375, 26.625, 24.25, 22.125, 18.0]","[10.9375, 7.71875, 7.3125, 7.25, 6.59375, 6.625, 6.5625, 6.5, 6.59375, 6.46875, 6.3125, 6.375, 6.28125, 6.34375, 6.28125, 6.0625, 6.21875, 6.28125, 6.125, 6.0625, 6.09375, 6.0, 5.75, 5.9375, 5.8125, 5.71875, 5.75, 5.75, 5.71875, 5.71875, 5.6875, 5.6875, 5.5625, 5.78125, 5.5625, 5.5625, 5.46875, 5.4375, 5.59375, 5.46875, 5.46875, 5.59375, 5.46875, 5.5625, 5.375, 5.3125, 5.5625, 5.375, 5.28125, 5.5625, 5.4375, 5.375, 5.3125, 5.3125, 5.28125, 5.40625, 5.15625, 5.3125, 5.25, 5.03125, 5.21875, 5.15625, 5.15625, 5.09375, 5.3125, 5.3125, 5.125, 5.0, 4.96875, 5.15625, 5.125, 4.96875, 5.0, 5.0625, 4.90625, 4.9375, 5.0, 5.03125, 4.96875, 4.875, 5.0, 4.71875, 4.84375, 4.71875, 4.90625, 4.875, 5.03125, 5.0, 4.78125, 4.90625, 5.0, 4.9375, 4.8125, 5.03125, 4.75, 4.71875, 4.84375, 4.6875, 4.5625, 4.84375, 4.71875, 4.84375, 4.71875, 4.8125, 4.75, 4.5625, 4.65625, 4.625, 4.5625, 4.875, 4.75, 4.65625, 4.5625, 4.4375, 4.59375, 4.59375, 4.65625, 4.5, 4.71875, 4.78125, 4.40625, 4.65625, 4.5, 4.75, 4.6875, 4.4375, 4.5625, 4.375, 4.53125, 4.6875, 4.53125, 4.375, 4.5625, 4.5, 4.21875, 4.53125, 4.53125, 4.4375, 4.5, 4.3125, 4.4375, 4.53125, 4.40625, 4.59375, 4.375, 4.46875, 4.4375, 4.4375, 4.40625, 4.40625, 4.375, 4.46875, 4.5, 4.4375, 4.4375, 4.46875, 4.65625, 4.4375, 4.28125, 4.46875, 4.46875, 4.53125, 4.5, 4.34375, 4.1875, 4.40625, 4.3125, 4.125, 4.25, 4.46875, 4.1875, 4.46875, 4.3125, 4.46875, 4.34375, 4.34375, 4.03125, 4.28125, 4.46875, 4.09375, 4.15625, 4.1875, 4.28125, 4.25, 4.1875, 4.03125, 4.21875, 4.09375, 4.40625, 4.34375, 4.28125, 3.96875, 3.859375, 4.3125, 4.34375, 4.25, 4.15625, 4.25, 4.0625, 4.3125, 4.03125, 4.125, 4.125, 4.0625, 4.15625, 4.3125, 3.96875, 4.3125, 4.03125, 4.03125, 4.15625, 4.25, 4.1875, 4.375, 3.96875, 4.09375, 4.03125, 4.03125, 3.921875, 4.1875, 3.96875, 4.125, 4.0625, 4.21875, 4.0625, 4.15625, 3.921875, 4.15625, 4.125, 4.0625, 4.0, 3.9375, 4.0, 4.1875, 3.734375, 3.90625, 4.09375, 4.1875, 4.125, 4.03125, 4.03125, 4.0625, 4.125, 3.96875, 4.09375, 4.125, 4.0, 4.03125, 4.03125, 4.1875, 3.890625, 4.03125, 3.96875, 3.890625, 4.0625, 3.859375, 3.8125, 3.96875, 3.921875, 3.9375, 3.875, 4.0, 3.984375, 3.9375, 4.09375, 3.890625, 3.765625, 3.9375, 3.984375, 3.671875, 3.96875, 3.921875, 4.03125, 3.953125, 4.03125, 4.03125, 3.75, 4.09375, 3.984375, 4.125, 3.875, 4.0625, 3.953125, 3.828125, 3.90625, 4.03125, 4.09375, 3.859375, 3.71875, 3.90625, 3.890625, 3.859375, 3.890625, 3.953125, 3.921875, 3.8125, 3.765625, 3.859375, 3.984375, 3.765625, 3.9375, 3.84375, 3.9375, 3.90625, 3.84375, 3.703125, 3.90625, 4.0625, 3.828125, 3.890625, 3.859375, 4.0, 3.890625, 3.625, 4.125, 3.828125, 3.9375, 3.8125, 3.90625, 3.859375, 3.671875, 4.0, 3.96875, 3.953125, 3.859375, 3.96875, 3.8125, 3.65625, 3.875, 3.625, 4.03125, 3.765625, 3.875, 3.984375, 3.765625, 3.703125, 3.671875, 3.8125, 3.796875, 3.78125, 3.75, 3.890625, 3.75, 3.84375, 3.578125, 3.875, 3.828125, 4.0, 3.8125, 3.75, 3.921875, 3.578125, 3.734375, 3.859375, 3.765625, 3.5, 3.78125, 3.890625, 3.75, 3.84375, 3.78125, 3.90625, 3.671875, 3.6875, 3.546875, 3.796875, 3.796875, 3.734375, 3.984375, 3.875, 3.71875, 3.8125, 3.671875, 3.90625, 3.65625, 3.796875, 3.71875, 3.78125, 3.8125, 3.734375, 3.640625, 3.8125, 3.96875, 3.828125, 3.640625, 3.84375, 3.8125, 3.8125, 3.640625, 3.625, 3.734375, 3.65625, 3.453125, 3.84375, 3.84375, 3.625, 3.765625, 3.90625, 3.78125, 3.703125, 3.859375, 3.703125, 3.796875, 3.765625, 3.8125, 3.84375, 3.78125, 3.640625, 3.84375, 3.484375, 3.71875, 3.625, 3.671875, 3.890625, 3.78125, 3.59375, 3.65625, 3.734375, 3.75, 3.875, 3.75, 3.8125, 3.40625, 3.796875, 3.8125, 3.6875, 3.578125, 3.71875, 3.59375, 3.671875, 3.71875, 3.703125, 3.75, 3.875, 3.796875, 3.765625, 3.84375, 3.78125, 3.796875, 3.671875, 3.75, 3.484375, 3.71875, 3.734375, 3.71875, 3.78125, 3.703125, 3.65625, 4.0625, 3.796875, 3.71875, 3.703125, 3.71875, 3.765625, 3.765625, 3.640625, 3.390625, 3.703125, 3.65625, 3.734375, 3.6875, 3.8125, 3.671875, 3.703125, 3.71875, 3.640625, 3.625, 3.734375, 3.71875, 3.703125, 3.703125, 3.65625, 3.40625, 3.71875, 3.359375, 3.6875, 3.5, 3.734375, 3.640625, 3.671875, 3.578125, 3.484375, 3.53125, 3.78125, 3.640625, 3.84375, 3.359375, 3.703125, 3.640625, 3.5625, 3.8125, 3.71875, 3.5, 3.40625, 3.703125, 3.578125, 3.6875, 3.375, 3.546875, 3.703125, 3.59375, 3.546875, 3.6875, 3.640625, 3.546875, 3.578125, 3.75, 3.671875, 3.609375, 3.609375, 3.6875, 3.53125, 3.75, 3.359375, 3.703125, 3.65625, 3.609375, 3.671875, 3.5, 3.78125, 3.6875, 3.5625, 3.578125, 3.53125, 3.5625, 3.59375, 3.59375, 3.71875, 3.71875, 3.6875, 3.46875, 3.59375, 3.4375, 3.734375, 3.671875, 3.53125, 3.546875, 3.65625, 3.5, 3.5625, 3.40625, 3.6875, 3.5625, 3.5625, 3.5625, 3.609375, 3.671875, 3.640625, 3.5625, 3.671875, 3.4375, 3.734375, 3.578125, 3.640625, 3.703125, 3.6875, 3.71875, 3.5625, 3.890625, 3.765625, 3.546875, 3.234375, 3.6875, 3.5625, 3.828125, 3.71875, 3.625, 3.609375, 3.59375, 3.703125, 3.328125, 3.6875, 3.578125, 3.484375, 3.78125, 3.625, 3.625, 3.671875, 3.796875, 3.46875, 3.625, 3.625, 3.53125, 3.515625, 3.671875, 3.5625, 3.4375, 3.265625, 3.5625, 3.609375, 3.546875, 3.5625, 3.3125, 3.71875, 3.703125, 3.6875, 3.78125, 3.46875, 3.453125, 3.546875, 3.546875, 3.5, 3.546875, 3.578125, 3.734375, 3.453125, 3.5, 3.484375, 3.5, 3.390625, 3.734375, 3.703125, 3.46875, 3.5, 3.421875, 3.515625, 3.515625, 3.671875, 3.46875, 3.359375, 3.5, 3.40625, 3.703125, 3.4375, 3.828125, 3.515625, 3.6875, 3.46875, 3.484375, 3.703125, 3.4375, 3.46875, 3.515625, 3.453125, 3.5, 3.59375, 3.5625, 3.515625, 3.375, 3.5625, 3.46875, 3.734375, 3.640625, 3.546875, 3.34375, 3.5, 3.625, 3.625, 3.46875, 3.453125, 3.515625, 3.375, 3.234375, 3.453125, 3.515625, 3.59375, 3.453125, 3.625, 3.421875, 3.4375, 3.671875, 3.5625, 3.46875, 3.578125, 3.234375, 3.578125, 3.609375, 3.46875, 3.5625, 3.59375, 3.40625, 3.546875, 3.53125, 3.359375, 3.40625, 3.578125, 3.515625, 3.609375, 3.53125, 3.59375, 3.609375, 3.5, 3.421875, 3.625, 3.5, 3.640625, 3.703125, 3.390625, 3.46875, 3.484375, 3.484375, 3.5, 3.46875, 3.59375, 3.484375, 3.46875, 3.40625, 3.40625, 3.46875, 3.546875, 3.625, 3.75, 3.4375, 3.671875, 3.4375, 3.3125, 3.515625, 3.328125, 3.4375, 3.390625, 3.453125, 3.625, 3.359375, 3.5, 3.4375, 3.5, 3.453125, 3.546875, 3.59375, 3.5, 3.4375, 3.609375, 3.71875, 3.5, 3.453125, 3.34375, 3.4375, 3.375, 3.578125, 3.46875, 3.40625, 3.65625, 3.484375, 3.578125, 3.578125, 3.53125, 3.609375, 3.375, 3.53125, 3.40625, 3.46875, 3.453125, 3.515625, 3.328125, 3.453125, 3.515625, 3.765625, 3.5, 3.484375, 3.25, 3.640625, 3.421875, 3.3125, 3.265625, 3.5, 3.75, 3.453125, 3.421875, 3.59375, 3.453125, 3.34375, 3.4375, 3.46875, 3.453125, 3.40625, 3.515625, 3.328125, 3.421875, 3.5625, 3.453125, 3.640625, 3.421875, 3.5, 3.453125, 3.4375, 3.390625, 3.28125, 3.578125, 3.5625, 3.375, 3.4375, 3.375, 3.4375, 3.609375, 3.375, 3.5, 3.5, 3.6875, 3.578125, 3.46875, 3.359375, 3.34375, 3.375, 3.421875, 3.640625, 3.484375, 3.375, 3.484375, 3.421875, 3.359375, 3.546875, 3.46875, 3.375, 3.515625, 3.34375, 3.296875, 3.296875, 3.59375, 3.515625, 3.609375, 3.5625, 3.46875, 3.453125, 3.375, 3.484375, 3.421875, 3.671875, 3.453125, 3.484375, 3.3125, 3.515625, 3.5625, 3.359375, 3.46875, 3.46875, 3.25, 3.546875, 3.5625, 3.53125, 3.390625, 3.375, 3.53125, 3.484375, 3.65625, 3.484375, 3.5, 3.375, 3.390625, 3.234375, 3.53125, 3.4375, 3.390625, 3.359375, 3.609375, 3.5, 3.34375, 3.34375, 3.640625, 3.34375, 3.484375, 3.578125, 3.375, 3.578125, 3.46875, 3.5, 3.421875, 3.453125, 3.46875, 3.546875, 3.515625, 3.546875, 3.453125, 3.40625, 3.3125, 3.328125, 3.203125, 3.46875, 3.515625, 3.53125, 3.484375, 3.5, 3.421875, 3.484375, 3.390625, 3.453125, 3.453125, 3.34375, 3.453125, 3.484375, 3.390625, 3.609375, 3.4375, 3.53125, 3.390625, 3.609375, 3.34375, 3.296875, 3.46875, 3.296875, 3.375, 3.484375, 3.171875, 3.53125, 3.453125, 3.46875, 3.25, 3.390625, 3.3125, 3.546875, 3.390625, 3.4375, 3.703125, 3.34375, 3.4375, 3.484375, 3.375, 3.484375, 3.3125, 3.203125, 3.484375, 3.390625, 3.515625, 3.40625, 3.34375, 3.546875, 3.34375, 3.546875, 3.15625, 3.4375, 3.484375, 3.453125, 3.46875, 3.484375, 3.4375, 3.515625, 3.40625, 3.234375, 3.359375, 3.296875, 3.578125, 3.546875, 3.375, 3.234375, 3.46875, 3.484375, 3.4375, 3.25, 3.03125, 3.40625, 3.484375, 3.375, 3.34375, 3.4375, 3.3125, 3.453125, 3.4375, 3.390625, 3.4375, 3.625, 3.203125, 3.453125, 3.109375, 3.328125, 3.453125, 3.421875, 3.453125, 3.40625, 3.25, 3.53125, 3.453125, 3.4375, 3.40625, 3.25, 3.34375, 3.390625, 3.328125, 3.5, 3.40625, 3.625, 3.484375, 3.484375, 3.53125, 3.5, 3.375, 3.265625, 3.46875, 3.5, 3.609375, 3.46875, 3.46875, 3.390625, 3.328125, 3.265625, 3.453125, 3.421875, 3.25, 3.21875, 3.28125, 3.1875, 3.5, 3.5625, 3.59375, 3.21875, 3.390625, 3.46875, 3.40625, 3.390625, 3.375, 3.546875, 3.40625, 3.375, 3.484375, 3.46875, 3.328125, 3.15625, 3.1875, 3.53125, 3.375, 3.34375, 3.421875, 3.328125, 3.5625, 3.296875, 3.359375, 3.109375, 3.515625, 3.21875, 3.28125, 3.390625, 3.359375, 3.296875, 3.3125, 3.3125, 3.515625, 3.4375, 3.28125, 3.5625, 3.296875, 3.375, 3.15625, 3.296875, 3.390625, 3.53125, 3.328125, 3.125, 3.328125, 3.03125, 3.46875, 3.515625, 3.21875, 3.375, 3.328125, 3.25, 3.28125, 3.234375, 3.296875, 3.375, 3.296875, 3.40625, 3.421875, 3.359375, 3.328125, 3.390625, 3.328125, 3.46875, 3.328125, 3.328125, 3.359375, 3.28125, 3.3125, 3.328125, 3.34375, 3.515625, 3.359375, 3.140625, 3.328125, 3.484375, 3.265625, 3.34375, 3.40625, 3.1875, 3.15625, 3.203125, 3.265625, 3.484375, 3.125, 3.40625, 3.125, 3.53125, 3.375, 3.359375, 3.3125, 3.515625, 3.4375, 3.375, 3.171875, 3.3125, 3.140625, 3.234375, 3.171875, 3.484375, 3.421875, 3.4375, 3.34375, 3.328125, 3.515625, 3.3125, 3.34375, 3.34375, 3.5, 3.3125, 3.3125, 3.359375, 3.328125, 3.375, 3.359375, 3.1875, 3.359375, 3.359375, 3.453125, 3.25, 3.328125, 3.4375, 3.328125, 3.28125, 3.390625, 3.34375, 3.421875, 3.328125, 3.484375, 3.125, 3.34375, 3.34375, 3.3125, 3.46875, 3.28125, 3.546875, 3.390625, 3.46875, 3.28125, 3.125, 3.46875, 3.53125, 3.40625, 3.171875, 3.625, 3.359375, 3.328125, 3.234375, 3.265625, 3.421875, 3.40625, 3.4375, 3.421875, 3.390625, 3.140625, 3.34375, 3.421875, 3.3125, 3.1875, 3.265625, 3.203125, 3.421875, 3.1875, 3.671875, 3.15625, 3.390625, 3.546875, 3.484375, 3.3125, 3.4375, 3.234375, 3.328125, 3.375, 3.359375, 3.328125, 3.265625, 3.328125, 3.34375, 3.171875, 3.359375, 3.21875, 3.21875, 3.328125, 3.265625, 3.453125, 3.34375, 3.328125, 3.40625, 3.34375, 3.21875, 3.28125, 3.09375, 3.296875, 3.46875, 3.4375, 3.578125, 3.28125, 3.3125, 3.34375, 3.296875, 3.28125, 3.15625, 3.3125, 3.359375, 3.296875, 3.328125, 3.25, 3.4375, 3.46875, 3.234375, 3.546875, 3.390625, 3.203125, 3.34375, 3.171875, 3.4375, 3.4375, 3.40625, 3.453125, 3.140625, 3.484375, 3.5, 3.3125, 3.34375, 3.296875, 3.4375, 3.359375, 3.390625, 3.34375, 3.328125, 3.25, 3.09375, 3.15625, 3.390625, 3.484375, 3.328125, 3.34375, 3.484375, 3.265625, 3.1875, 3.40625, 3.265625, 3.234375, 3.390625, 3.375, 3.234375, 3.265625, 3.328125, 3.421875, 3.359375, 3.5625, 3.1875, 3.0625, 3.421875, 3.4375, 3.53125, 3.328125, 3.25, 3.390625, 3.375, 3.265625, 3.28125, 3.296875, 3.390625, 3.171875, 3.421875, 3.28125, 3.21875, 3.359375, 3.25, 3.4375, 3.296875, 3.375, 3.4375, 3.359375, 3.296875, 3.234375, 3.28125, 3.3125, 2.984375, 3.203125, 3.203125, 3.296875, 3.296875, 3.296875, 3.1875, 3.28125, 3.375, 3.515625, 3.3125, 3.21875, 3.21875, 3.234375, 3.078125, 3.15625, 3.375, 3.28125, 3.484375, 3.546875, 3.234375, 3.25, 3.375, 3.34375, 3.140625, 3.265625, 3.28125, 3.4375, 3.234375, 3.078125, 3.265625, 3.296875, 3.28125, 3.34375, 3.390625, 3.359375, 3.3125, 3.3125, 3.375, 3.09375, 3.4375, 3.3125, 3.140625, 3.375, 3.3125, 3.40625, 3.3125, 3.359375, 3.203125, 3.34375, 3.171875, 3.265625, 3.375, 3.40625, 3.609375, 3.09375, 3.46875, 3.296875, 3.296875, 3.3125, 3.265625, 3.359375, 3.3125, 3.265625, 3.25, 3.34375, 3.3125, 3.21875, 3.078125, 3.109375, 3.296875, 3.109375, 3.265625, 3.3125, 3.234375, 3.1875, 3.203125, 3.171875, 3.0, 3.09375, 3.3125, 3.15625, 3.09375, 3.453125, 3.03125, 3.265625, 3.265625, 3.453125, 2.984375, 3.3125, 3.375, 3.265625, 3.359375, 3.140625, 3.25, 3.140625, 3.1875, 3.28125, 3.046875, 3.09375, 3.25, 3.328125, 3.140625, 3.3125, 3.296875, 3.046875, 3.265625, 3.234375, 3.25, 3.203125, 3.421875, 3.203125, 3.15625, 3.25, 3.3125, 3.28125, 3.234375, 3.25, 3.25, 3.15625, 3.359375, 3.578125, 3.28125, 3.21875, 3.21875, 3.234375, 3.125, 3.265625, 3.3125, 3.375, 3.265625, 3.3125, 3.390625, 3.0625, 3.109375, 3.375, 3.328125, 3.359375, 3.203125, 3.140625, 3.203125, 3.171875, 3.265625, 3.3125, 3.390625, 3.28125, 3.265625, 3.09375, 3.4375, 3.234375, 3.171875, 3.28125, 3.53125, 3.171875, 3.015625, 3.28125, 3.609375, 3.34375, 3.34375, 3.203125, 3.125, 3.21875, 3.203125, 3.25, 3.328125, 3.25, 3.34375, 3.125, 3.234375, 3.265625, 3.296875, 3.09375, 3.171875, 3.25, 3.328125, 3.140625, 3.234375, 3.296875, 3.203125, 3.328125, 3.375, 3.09375, 3.203125, 3.234375, 3.203125, 3.390625, 3.296875, 3.234375, 3.203125, 3.3125, 3.1875, 3.234375, 3.15625, 3.28125, 3.28125, 3.25, 3.203125, 3.125, 3.21875, 3.09375, 3.1875, 3.0, 3.3125, 3.296875, 2.9375, 3.25, 3.203125, 3.15625, 3.15625, 3.46875, 3.359375, 3.4375, 3.140625, 3.265625, 3.1875, 3.1875, 3.25, 3.15625, 3.3125, 3.3125, 3.21875, 3.25, 3.21875, 3.171875, 3.21875, 3.09375, 3.171875, 3.375, 3.390625, 3.25, 3.296875, 3.328125, 3.296875, 3.140625, 3.203125, 3.234375, 3.171875, 3.171875, 3.125, 3.171875, 3.203125, 3.203125, 3.359375, 3.265625, 3.234375, 3.25, 3.28125, 3.1875, 3.28125, 3.171875, 3.296875, 3.078125, 3.046875, 3.09375, 3.171875, 3.265625, 3.078125, 3.109375, 3.1875, 3.296875, 3.0625, 3.28125, 3.109375, 3.15625, 3.21875, 3.265625, 3.375, 3.28125, 3.078125, 3.1875, 3.203125, 3.109375, 3.25, 3.296875, 3.265625, 3.171875, 3.09375, 3.15625, 3.28125, 3.390625, 3.28125, 3.125, 3.28125, 3.3125, 3.234375, 3.453125, 3.125, 3.125, 3.203125, 3.34375, 3.0625, 3.34375, 3.046875, 3.3125, 3.0, 3.265625, 3.171875, 3.1875, 3.34375, 3.125, 3.15625, 3.359375, 3.203125, 3.296875, 3.40625, 3.1875, 3.3125, 3.1875, 3.140625, 3.0625, 3.140625, 3.171875, 3.25, 3.078125, 3.0625, 3.125, 3.03125, 3.15625, 3.140625, 3.25, 3.234375, 3.296875, 3.171875, 3.265625, 3.25, 3.140625, 3.4375, 3.328125, 3.125, 3.296875, 3.0625, 3.25, 3.171875, 3.328125, 3.234375, 3.15625, 3.09375, 3.21875, 3.390625, 3.171875, 3.109375, 3.15625, 3.484375, 3.140625, 3.21875, 3.25, 3.328125, 3.171875, 3.015625, 3.203125, 3.234375, 3.296875, 3.3125, 3.109375, 3.390625, 3.015625, 3.125, 3.1875, 3.109375, 3.171875, 3.015625, 3.234375, 3.1875, 3.296875, 3.0625, 3.453125, 3.3125, 3.171875, 2.921875, 3.1875, 3.359375, 3.09375, 3.234375, 3.125, 3.09375, 3.125, 3.015625, 3.203125, 2.984375, 3.15625, 3.4375, 3.203125, 3.171875, 3.203125, 3.28125, 3.15625, 3.234375, 3.09375, 3.265625, 3.171875, 3.15625, 3.21875, 3.265625, 3.140625, 3.234375, 3.0, 3.109375, 3.265625, 3.3125, 3.25, 3.1875, 3.125, 2.953125, 3.015625, 2.78125, 3.09375, 3.21875, 3.296875, 3.15625, 3.0625, 3.171875, 3.296875, 3.09375, 2.890625, 2.9375, 3.109375, 3.3125, 2.984375, 3.15625, 3.234375, 3.296875, 3.15625, 3.234375, 3.265625, 3.0625, 3.203125, 3.09375, 3.28125, 3.21875, 3.078125, 3.109375, 3.140625, 3.171875, 3.15625, 3.140625, 3.265625, 3.34375, 3.15625, 3.078125, 3.3125, 3.046875, 3.28125, 3.4375, 2.9375, 3.1875, 3.21875, 3.09375, 3.171875, 3.21875, 3.3125, 3.140625, 3.28125, 2.953125, 3.140625, 3.0, 3.265625, 3.0, 3.078125, 3.046875, 2.90625, 3.25, 3.140625, 3.09375, 3.1875, 3.171875, 3.125, 3.1875, 3.09375, 3.1875, 3.140625, 2.984375, 3.140625, 3.21875, 3.046875, 3.03125, 3.109375, 3.0, 2.859375, 3.109375, 3.171875, 2.96875, 3.0625, 3.03125, 3.09375, 3.234375, 3.109375, 3.125, 3.34375, 3.171875, 3.078125, 3.125, 3.109375, 3.09375, 3.0625, 3.03125, 3.125, 3.15625, 2.9375, 3.25, 3.140625, 3.234375, 3.125, 3.0625, 3.0, 3.0625, 3.1875, 3.09375, 3.328125, 3.15625, 3.046875, 3.0625, 3.1875, 2.96875, 3.25, 3.09375, 3.015625, 3.078125, 3.03125, 3.15625, 3.0625, 3.03125, 3.09375, 3.140625, 2.828125, 3.203125, 3.078125, 3.078125, 3.046875, 3.15625, 3.09375, 3.203125, 3.015625, 3.109375, 3.3125, 3.265625, 2.953125, 3.21875, 3.046875, 3.015625, 3.03125, 2.96875, 2.921875, 3.109375, 3.296875, 3.078125, 3.140625, 3.125, 3.09375, 3.203125, 3.140625, 3.109375, 3.0, 3.203125, 3.109375, 3.171875, 3.125, 3.015625, 3.28125, 3.015625, 3.15625, 3.46875, 3.09375, 2.9375, 3.140625, 2.984375, 3.078125, 3.046875, 2.9375, 2.84375, 3.34375, 3.015625, 3.015625, 3.171875, 2.953125, 2.796875, 3.140625, 3.046875, 2.921875, 3.125, 3.03125, 2.984375, 2.953125, 3.015625, 3.140625, 3.140625, 3.03125, 3.0625, 3.296875, 3.125, 3.0, 3.109375, 3.078125, 2.9375, 3.15625, 3.15625, 3.0625, 3.203125, 3.203125, 3.15625, 3.09375, 3.046875, 3.25, 2.953125, 2.9375, 2.890625, 3.171875, 2.90625, 3.140625, 3.078125, 2.875, 3.03125, 3.03125, 3.15625, 2.9375, 3.078125, 3.09375, 2.984375, 3.125, 3.09375, 2.96875, 3.21875, 3.046875, 3.078125, 3.0, 2.984375, 3.03125, 2.734375, 3.1875, 3.015625, 2.953125, 3.046875, 3.0, 3.125, 3.15625, 3.015625, 3.015625, 3.0625, 3.109375, 3.09375, 3.125, 3.078125, 3.078125, 3.21875, 3.28125, 3.015625, 3.109375, 3.015625, 3.0625, 3.109375, 3.109375, 3.046875, 3.125, 3.1875, 3.171875, 3.078125, 3.078125, 3.09375, 3.0, 3.109375, 3.0625, 3.0625, 3.0625, 3.0625, 3.09375, 3.171875, 3.046875, 2.890625, 3.140625, 3.1875, 2.78125, 3.1875, 3.0, 3.078125, 3.015625, 3.109375, 3.046875, 3.140625, 3.015625, 3.078125, 2.953125]","[56320.0, 2256.0, 1504.0, 1408.0, 732.0, 756.0, 708.0, 664.0, 732.0, 644.0, 552.0, 588.0, 536.0, 568.0, 536.0, 430.0, 502.0, 536.0, 458.0, 430.0, 444.0, 404.0, 314.0, 380.0, 334.0, 304.0, 314.0, 314.0, 304.0, 304.0, 296.0, 296.0, 260.0, 324.0, 260.0, 260.0, 237.0, 230.0, 270.0, 237.0, 237.0, 270.0, 237.0, 260.0, 216.0, 203.0, 260.0, 216.0, 197.0, 260.0, 230.0, 216.0, 203.0, 203.0, 197.0, 223.0, 174.0, 203.0, 191.0, 153.0, 185.0, 174.0, 174.0, 163.0, 203.0, 203.0, 168.0, 149.0, 144.0, 174.0, 168.0, 144.0, 149.0, 158.0, 135.0, 140.0, 149.0, 153.0, 144.0, 131.0, 149.0, 112.0, 127.0, 112.0, 135.0, 131.0, 153.0, 149.0, 119.5, 135.0, 149.0, 140.0, 123.0, 153.0, 115.5, 112.0, 127.0, 108.5, 