last_val_loss,dataset,ul2,causal_denoisers,noncausal_masking,causal_divider,s_divider,r_divider,x_divider,randomize_denoiser_settings,randomize_mask_width,no_special_tokens,alternate_denoisers,progressive_tasks,model_scale,depth,width,num_params,num_non_embedding_params,num_heads,linear_value,seed,run_num,max_epochs,max_steps,max_tokens,max_time_seconds,gpu_capacity_scalar,train_loss_causal,train_pplx_causal,train_acc_causal,train_loss_s,train_pplx_s,train_loss_r,train_pplx_r,train_loss_x,train_pplx_x,train_acc_x_causal,train_acc_r_causal,train_acc_s_causal,train_acc_x_masked,train_acc_r_masked,train_acc_s_masked,val_loss_causal,val_pplx_causal,val_acc_causal,val_loss_s,val_pplx_s,val_loss_r,val_pplx_r,val_loss_x,val_pplx_x,grad_norm,cumulative_time,tokens_seen,epoch,batch_size,seq_length,learning_rate,weight_decay
3.734375,fineweb,true,true,false,1000.0,1000.0,1.0,1.0,true,true,true,true,false,1.0001001527155036,8,384,46014344,7376264,6,false,1600,1,1.0,1000000000,1000000000000,1000000000,1.9,"[10.9375, 6.90625, 6.5, 6.34375, 6.21875, 6.0625, 6.0625, 5.84375, 5.6875, 5.75, 5.71875, 5.59375, 5.4375, 5.53125, 5.4375, 5.3125, 5.375, 5.25, 5.34375, 5.21875, 5.125, 5.15625, 5.125, 5.0625, 5.03125, 5.125, 5.03125, 5.0, 5.0, 5.03125, 4.875, 4.875, 4.84375, 4.9375, 4.84375, 4.875, 4.8125, 4.78125, 4.78125, 4.75, 4.6875, 4.78125, 4.75, 4.75, 4.71875, 4.75, 4.71875, 4.71875, 4.71875, 4.6875, 4.6875, 4.65625, 4.625, 4.5625, 4.65625, 4.6875, 4.59375, 4.65625, 4.625, 4.65625, 4.65625, 4.59375, 4.5625, 4.5625, 4.59375, 4.59375, 4.65625, 4.46875, 4.53125, 4.5625, 4.59375, 4.5, 4.53125, 4.5, 4.5625, 4.4375, 4.46875, 4.53125, 4.5625, 4.53125, 4.5, 4.53125, 4.5, 4.4375, 4.5, 4.4375, 4.40625, 4.40625, 4.46875, 4.4375, 4.4375, 4.40625, 4.40625, 4.40625, 4.40625, 4.3125, 4.34375, 4.4375, 4.40625, 4.375, 4.25, 4.25, 4.34375, 4.28125, 4.28125, 4.3125, 4.34375, 4.375, 4.28125, 4.3125, 4.25, 4.3125, 4.25, 4.25, 4.21875, 4.21875, 4.34375, 4.21875, 4.25, 4.15625, 4.15625, 4.1875, 4.21875, 4.25, 4.21875, 4.15625, 4.21875, 4.25, 4.1875, 4.21875, 4.15625, 4.15625, 4.15625, 4.25, 4.125, 4.15625, 4.125, 4.15625, 4.125, 4.09375, 4.03125, 4.21875, 4.125, 4.1875, 4.15625, 4.1875, 4.0625, 4.03125, 4.09375, 4.09375, 4.15625, 4.0625, 4.09375, 4.0, 4.0625, 4.0625, 4.125, 4.0, 4.125, 4.125, 4.125, 4.0, 4.0625, 4.125, 4.0, 4.0625, 4.09375, 4.0625, 3.96875, 4.0, 3.9375, 3.875, 4.09375, 4.03125, 4.03125, 3.96875, 3.953125, 3.921875, 3.953125, 4.03125, 4.125, 4.09375, 3.953125, 4.03125, 3.984375, 3.96875, 3.9375, 3.875, 3.921875, 3.859375, 3.984375, 3.921875, 3.953125, 3.96875, 3.921875, 3.921875, 3.90625, 3.9375, 3.890625, 4.0, 3.9375, 3.9375, 3.828125, 3.875, 3.984375, 3.890625, 3.875, 3.828125, 3.796875, 3.921875, 3.875, 3.875, 3.875, 3.828125, 3.875, 3.875, 3.84375, 3.84375, 3.90625, 3.921875, 3.8125, 3.875, 3.890625, 3.890625, 3.8125, 3.859375, 3.859375, 3.953125, 3.75, 3.765625, 3.765625, 3.875, 3.84375, 3.8125, 3.828125, 3.828125, 3.890625, 3.796875, 3.78125, 3.78125, 3.734375, 3.8125, 3.796875, 3.796875, 3.78125, 3.75, 3.75, 3.765625, 3.71875, 3.875, 3.734375, 3.703125, 3.765625, 3.859375, 3.75, 3.765625, 3.75, 3.796875, 3.6875, 3.6875, 3.78125, 3.78125, 3.84375, 3.640625, 3.796875, 3.75, 3.703125, 3.765625, 3.703125, 3.78125, 3.8125, 3.71875, 3.71875, 3.59375, 3.75, 3.734375, 3.703125, 3.671875, 3.6875, 3.765625, 3.734375, 3.703125, 3.75, 3.625, 3.75, 3.671875, 3.703125, 3.6875, 3.78125, 3.71875, 3.71875, 3.75, 3.71875, 3.640625, 3.65625, 3.71875, 3.703125, 3.765625, 3.765625, 3.671875]","[56320.0, 1000.0, 664.0, 568.0, 502.0, 430.0, 430.0, 346.0, 296.0, 314.0, 304.0, 270.0, 230.0, 253.0, 230.0, 203.0, 216.0, 191.0, 209.0, 185.0, 168.0, 174.0, 168.0, 158.0, 153.0, 168.0, 153.0, 149.0, 149.0, 153.0, 131.0, 131.0, 127.0, 140.0, 127.0, 131.0, 123.0, 119.5, 119.5, 115.5, 108.5, 119.5, 115.5, 115.5, 112.0, 115.5, 112.0, 112.0, 112.0, 108.5, 108.5, 105.5, 102.0, 96.0, 105.5, 108.5, 99.0, 105.5, 102.0, 105.5, 105.5, 99.0, 96.0, 96.0, 99.0, 99.0, 105.5, 87.5, 93.0, 96.0, 99.0, 90.0, 93.0, 90.0, 96.0, 84.5, 87.5, 93.0, 96.0, 93.0, 90.0, 93.0, 90.0, 84.5, 90.0, 84.5, 82.0, 82.0, 87.5, 84.5, 84.5, 82.0, 82.0, 82.0, 82.0, 74.5, 77.0, 84.5, 82.0, 79.5, 70.0, 70.0, 77.0, 72.5, 72.5, 74.5, 77.0, 79.5, 72.5, 74.5, 70.0, 74.5, 70.0, 70.0, 68.0, 68.0, 77.0, 68.0, 70.0, 64.0, 64.0, 66.0, 68.0, 70.0, 68.0, 64.0, 68.0, 70.0, 66.0, 68.0, 64.0, 64.0, 64.0, 70.0, 62.0, 64.0, 62.0, 64.0, 62.0, 60.0, 56.25, 68.0, 62.0, 66.0, 64.0, 66.0, 58.25, 56.25, 60.0, 60.0, 64.0, 58.25, 60.0, 54.75, 58.25, 58.25, 62.0, 54.75, 62.0, 62.0, 62.0, 54.75, 58.25, 62.0, 54.75, 58.25, 60.0, 58.25, 53.0, 54.75, 51.25, 48.25, 60.0, 56.25, 56.25, 53.0, 52.25, 50.5, 52.25, 56.25, 62.0, 60.0, 52.25, 56.25, 53.75, 53.0, 51.25, 48.25, 50.5, 47.5, 53.75, 50.5, 52.25, 53.0, 50.5, 50.5, 49.75, 51.25, 49.0, 54.75, 51.25, 51.25, 46.0, 48.25, 53.75, 49.0, 48.25, 46.0, 44.5, 50.5, 48.25, 48.25, 48.25, 46.0, 48.25, 48.25, 46.75, 46.75, 49.75, 50.5, 45.25, 48.25, 49.0, 49.0, 45.25, 47.5, 47.5, 52.25, 42.5, 43.25, 43.25, 48.25, 46.75, 45.25, 46.0, 46.0, 49.0, 44.5, 44.0, 44.0, 42.0, 45.25, 44.5, 44.5, 44.0, 42.5, 42.5, 43.25, 41.25, 48.25, 42.0, 40.5, 43.25, 47.5, 42.5, 43.25, 42.5, 44.5, 40.0, 40.0, 44.0, 44.0, 46.75, 38.25, 44.5, 42.5, 40.5, 43.25, 40.5, 44.0, 45.25, 41.25, 41.25, 36.5, 42.5, 42.0, 40.5, 39.25, 40.0, 43.25, 42.0, 40.5, 42.5, 37.5, 42.5, 39.25, 40.5, 40.0, 44.0, 41.25, 41.25, 42.5, 41.25, 38.25, 38.75, 41.25, 40.5, 43.25, 43.25, 39.25]","[9.212853910867125e-06, 0.08410414308309555, 0.08922649174928665, 0.10047538578510284, 0.10006080567836761, 0.10270489752292633, 0.10665720701217651, 0.11722435057163239, 0.11369583010673523, 0.11997899413108826, 0.11567659676074982, 0.12392209470272064, 0.1311357617378235, 0.12168337404727936, 0.12872199714183807, 0.12302844971418381, 0.12956036627292633, 0.13728995621204376, 0.12603184580802917, 0.13870872557163239, 0.13881927728652954, 0.13652528822422028, 0.13338370621204376, 0.1550339013338089, 0.1464659571647644, 0.13936284184455872, 0.14794921875, 0.14778338372707367, 0.14399690926074982, 0.14934036135673523, 0.13637787103652954, 0.15337559580802917, 0.14777417480945587, 0.13776901364326477, 0.1552642285823822, 0.15145932137966156, 0.15424160659313202, 0.16151975095272064, 0.15436136722564697, 0.17462043464183807, 0.14593160152435303, 0.14906397461891174, 0.1489165723323822, 0.15364275872707367, 0.15898622572422028, 0.1594100147485733, 0.17124852538108826, 0.1460145264863968, 0.1481703221797943, 0.15101709961891174, 0.1559828221797943, 0.1584518700838089, 0.16323333978652954, 0.15952056646347046, 0.14498268067836761, 0.15633292496204376, 0.1535506397485733, 0.1535874903202057, 0.15888488292694092, 0.14311246573925018, 0.14975494146347046, 0.16851231455802917, 0.16277270019054413, 0.15660008788108826, 0.15271227061748505, 0.15277676284313202, 0.16128943860530853, 0.16424675285816193, 0.17850825190544128, 0.1694520264863968, 0.15687647461891174, 0.17252911627292633, 0.16247789561748505, 0.1587098389863968, 0.14742408692836761, 0.17149727046489716, 0.1608840674161911, 0.1586637645959854, 0.16881632804870605, 0.16365714371204376, 0.1465120166540146, 0.16124336421489716, 0.1616118848323822, 0.15952977538108826, 0.17362543940544128, 0.18071013689041138, 0.15273991227149963, 0.16487322747707367, 0.1584518700838089, 0.16886240243911743, 0.17509950697422028, 0.1606629639863968, 0.17296211421489716, 0.1552918702363968, 0.16978368163108826, 0.16711196303367615, 0.1843215674161911, 0.1654997020959854, 0.1843400001525879, 0.1676923632621765, 0.17705263197422028, 0.18890957534313202, 0.17563384771347046, 0.19398584961891174, 0.18445055186748505, 0.18130896985530853, 0.17224352061748505, 0.17529296875, 0.18324366211891174, 0.16561947762966156, 0.17049308121204376, 0.18209205567836761, 0.17347803711891174, 0.1833818554878235, 0.17050229012966156, 0.17789100110530853, 0.17475862801074982, 0.1811247020959854, 0.16793189942836761, 0.1886884570121765, 0.19502690434455872, 0.1762603223323822, 0.17956773936748505, 0.18565742671489716, 0.19300928711891174, 0.1760392189025879, 0.18842129409313202, 0.18502174317836761, 0.18754607439041138, 0.18399912118911743, 0.19768020510673523, 0.18207363784313202, 0.18562057614326477, 0.1743071973323822, 0.1891951709985733, 0.20132850110530853, 0.1821565479040146, 0.16727778315544128, 0.19185768067836761, 0.17273180186748505, 0.1918853223323822, 0.1931290626525879, 0.18449661135673523, 0.1921340674161911, 0.17758697271347046, 0.1872881054878235, 0.18324366211891174, 0.1835661083459854, 0.2048662304878235, 0.1879790723323822, 0.18364903330802917, 0.18474535644054413, 0.18496647477149963, 0.20132850110530853, 0.1940964013338089, 0.1816498339176178, 0.18729731440544128, 0.1955243945121765, 0.19565337896347046, 0.19757886230945587, 0.18439526855945587, 0.19518351554870605, 0.1909364014863968, 0.17802919447422028, 0.20454378426074982, 0.19062316417694092, 0.18154850602149963, 0.18379643559455872, 0.1801665723323822, 0.18100494146347046, 0.20369620621204376, 0.19440963864326477, 0.18377800285816193, 0.1885042041540146, 0.1899321973323822, 0.19392135739326477, 0.1989792138338089, 0.20278412103652954, 0.18738944828510284, 0.1914154589176178, 0.18974794447422028, 0.18199992179870605, 0.2116653174161911, 0.19646410644054413, 0.1972840577363968, 0.20375147461891174, 0.19323961436748505, 0.20030586421489716, 0.22354069352149963, 0.19201430678367615, 0.20840397477149963, 0.18827387690544128, 0.21952387690544128, 0.2023603320121765, 0.21099278330802917, 0.21640072762966156, 0.21103884279727936, 0.18707621097564697, 0.19668522477149963, 0.19863834977149963, 0.18125368654727936, 0.2048662304878235, 0.17817659676074982, 0.205078125, 0.2109375, 0.19854621589183807, 0.2024248242378235, 0.2030973583459854, 0.20791569352149963, 0.17948481440544128, 0.20856979489326477, 0.1933870166540146, 0.22137567400932312, 0.20375147461891174, 0.20033350586891174, 0.20401865243911743, 0.2109375, 0.21204304695129395, 0.18881744146347046, 0.21197855472564697, 0.2172759473323822, 0.20048090815544128, 0.18408203125, 0.19592055678367615, 0.21785636246204376, 0.2040739208459854, 0.2121443897485733, 0.20597177743911743, 0.20806309580802917, 0.2009047120809555, 0.18805277347564697, 0.19295401871204376, 0.1948334276676178, 0.20707732439041138, 0.19183926284313202, 0.20449772477149963, 0.19657465815544128, 0.22138488292694092, 0.20639556646347046, 0.20370541512966156, 0.22705078125, 0.1891859620809555, 0.2095002979040146, 0.19371867179870605, 0.19780918955802917, 0.21219965815544128, 0.19934773445129395, 0.22615714371204376, 0.2287920117378235, 0.21056899428367615, 0.2009139209985733, 0.228515625, 0.20659825205802917, 0.19767099618911743, 0.21111254394054413, 0.20693913102149963, 0.19883181154727936, 0.21309331059455872, 0.22468307614326477, 0.2016693651676178, 0.20474646985530853, 0.21080853044986725, 0.1840543895959854, 0.20258145034313202, 0.2109375, 0.20130085945129395, 0.20052698254585266, 0.21159161627292633, 0.2104584276676178, 0.21956072747707367, 0.20318028330802917, 0.21664026379585266, 0.2238447070121765, 0.20101526379585266, 0.20325398445129395, 0.21369214355945587, 0.22490419447422028, 0.21808667480945587, 0.20611917972564697, 0.2009323388338089, 0.20687463879585266, 0.2021392285823822, 0.2146134376525879, 0.2299896776676178, 0.20982274413108826, 0.1940779834985733, 0.21343418955802917, 0.23303914070129395, 0.18515993654727936, 0.21015441417694092, 0.19598503410816193, 0.19477815926074982, 0.1960218995809555, 0.22132039070129395, 0.21351709961891174, 0.20074808597564697, 0.22765883803367615, 0.1906508058309555, 0.2282484620809555, 0.19003354012966156]","[10.9375, 7.03125, 6.65625, 6.5, 6.40625, 6.25, 6.3125, 6.09375, 5.9375, 6.0, 5.96875, 5.84375, 5.71875, 5.75, 5.71875, 5.59375, 5.65625, 5.5625, 5.625, 5.5, 5.4375, 5.46875, 5.375, 5.40625, 5.34375, 5.40625, 5.34375, 5.28125, 5.28125, 5.375, 5.125, 5.1875, 5.125, 5.25, 5.1875, 5.25, 5.15625, 5.15625, 5.09375, 5.125, 5.0, 5.125, 5.0625, 5.03125, 5.09375, 5.0625, 5.125, 5.03125, 4.96875, 5.03125, 5.0, 5.03125, 5.0, 4.90625, 5.0, 5.0625, 4.90625, 4.96875, 5.0, 4.96875, 4.96875, 4.9375, 4.875, 4.875, 4.9375, 4.90625, 5.0, 4.8125, 4.96875, 5.0, 4.9375, 4.875, 4.90625, 4.84375, 4.84375, 4.78125, 4.8125, 4.875, 4.90625, 4.90625, 4.8125, 4.875, 4.84375, 4.8125, 4.875, 4.875, 4.71875, 4.71875, 4.84375, 4.84375, 4.90625, 4.8125, 4.75, 4.75, 4.8125, 4.6875, 4.78125, 4.8125, 4.8125, 4.75, 4.6875, 4.65625, 4.78125, 4.75, 4.75, 4.75, 4.78125, 4.75, 4.71875, 4.75, 4.625, 4.75, 4.59375, 4.71875, 4.625, 4.59375, 4.75, 4.65625, 4.5625, 4.5625, 4.59375, 4.5625, 4.625, 4.71875, 4.6875, 4.59375, 4.65625, 4.65625, 4.65625, 4.59375, 4.59375, 4.5, 4.5, 4.65625, 4.5625, 4.65625, 4.59375, 4.5, 4.5625, 4.40625, 4.46875, 4.65625, 4.5625, 4.6875, 4.625, 4.65625, 4.5625, 4.40625, 4.59375, 4.53125, 4.625, 4.53125, 4.5, 4.53125, 4.53125, 4.53125, 4.5625, 4.5625, 4.59375, 4.59375, 4.59375, 4.4375, 4.5, 4.53125, 4.53125, 4.5, 4.46875, 4.5, 4.34375, 4.40625, 4.40625, 4.34375, 4.59375, 4.4375, 4.46875, 4.34375, 4.46875, 4.4375, 4.4375, 4.5625, 4.625, 4.53125, 4.46875, 4.5625, 4.5, 4.53125, 4.5, 4.34375, 4.5, 4.40625, 4.4375, 4.40625, 4.5, 4.5, 4.46875, 4.46875, 4.4375, 4.375, 4.40625, 4.46875, 4.34375, 4.40625, 4.1875, 4.3125, 4.4375, 4.34375, 4.34375, 4.34375, 4.21875, 4.34375, 4.375, 4.25, 4.375, 4.3125, 4.375, 4.34375, 4.40625, 4.34375, 4.40625, 4.46875, 4.34375, 4.3125, 4.28125, 4.40625, 4.34375, 4.34375, 4.4375, 4.5, 4.25, 4.21875, 4.1875, 4.3125, 4.28125, 4.34375, 4.21875, 4.25, 4.375, 4.34375, 4.28125, 4.21875, 4.34375, 4.21875, 4.3125, 4.1875, 4.125, 4.3125, 4.21875, 4.28125, 4.28125, 4.34375, 4.21875, 4.15625, 4.21875, 4.375, 4.21875, 4.1875, 4.15625, 4.21875, 4.15625, 4.09375, 4.15625, 4.28125, 4.25, 4.03125, 4.21875, 4.21875, 4.09375, 4.1875, 4.21875, 4.28125, 4.28125, 4.15625, 4.1875, 3.921875, 4.1875, 4.21875, 4.15625, 4.125, 4.09375, 4.15625, 4.15625, 4.09375, 4.21875, 4.15625, 4.1875, 4.09375, 4.125, 4.1875, 4.125, 4.125, 4.0625, 4.15625, 4.09375, 4.125, 4.09375, 4.125, 4.125, 4.125, 4.21875, 4.0]","[56320.0, 1136.0, 780.0, 664.0, 608.0, 520.0, 552.0, 444.0, 380.0, 404.0, 392.0, 346.0, 304.0, 314.0, 304.0, 270.0, 286.0, 260.0, 278.0, 245.0, 230.0, 237.0, 216.0, 223.0, 209.0, 223.0, 209.0, 197.0, 197.0, 216.0, 168.0, 179.0, 168.0, 191.0, 179.0, 191.0, 174.0, 174.0, 163.0, 168.0, 149.0, 168.0, 158.0, 153.0, 163.0, 158.0, 168.0, 153.0, 144.0, 153.0, 149.0, 153.0, 149.0, 135.0, 149.0, 158.0, 135.0, 144.0, 149.0, 144.0, 144.0, 140.0, 131.0, 131.0, 140.0, 135.0, 149.0, 123.0, 144.0, 149.0, 140.0, 131.0, 135.0, 127.0, 127.0, 119.5, 123.0, 131.0, 135.0, 135.0, 123.0, 131.0, 127.0, 123.0, 131.0, 131.0, 112.0, 112.0, 127.0, 127.0, 135.0, 123.0, 115.5, 115.5, 123.0, 108.5, 119.5, 123.0, 123.0, 115.5, 108.5, 105.5, 119.5, 115.5, 115.5, 115.5, 119.5, 115.5, 112.0, 115.5, 102.0, 115.5, 99.0, 112.0, 102.0, 99.0, 115.5, 105.5, 96.0, 96.0, 99.0, 96.0, 102.0, 112.0, 108.5, 99.0, 105.5, 105.5, 105.5, 99.0, 99.0, 90.0, 90.0, 105.5, 96.0, 105.5, 99.0, 90.0, 96.0, 82.0, 87.5, 105.5, 96.0, 108.5, 102.0, 105.5, 96.0, 82.0, 99.0, 93.0, 102.0, 93.0, 90.0, 93.0, 93.0, 93.0, 96.0, 96.0, 99.0, 99.0, 99.0, 84.5, 90.0, 93.0, 93.0, 90.0, 87.5, 90.0, 77.0, 82.0, 82.0, 77.0, 99.0, 84.5, 87.5, 77.0, 87.5, 84.5, 84.5, 96.0, 102.0, 93.0, 87.5, 96.0, 90.0, 93.0, 90.0, 77.0, 90.0, 82.0, 84.5, 82.0, 90.0, 90.0, 87.5, 87.5, 84.5, 79.5, 82.0, 87.5, 77.0, 82.0, 66.0, 74.5, 84.5, 77.0, 77.0, 77.0, 68.0, 77.0, 79.5, 70.0, 79.5, 74.5, 79.5, 77.0, 82.0, 77.0, 82.0, 87.5, 77.0, 74.5, 72.5, 82.0, 77.0, 77.0, 84.5, 90.0, 70.0, 68.0, 66.0, 74.5, 72.5, 77.0, 68.0, 70.0, 79.5, 77.0, 72.5, 68.0, 77.0, 68.0, 74.5, 66.0, 62.0, 74.5, 68.0, 72.5, 72.5, 77.0, 68.0, 64.0, 68.0, 79.5, 68.0, 66.0, 64.0, 68.0, 64.0, 60.0, 64.0, 72.5, 70.0, 56.25, 68.0, 68.0, 60.0, 66.0, 68.0, 72.5, 72.5, 64.0, 66.0, 50.5, 66.0, 68.0, 64.0, 62.0, 60.0, 64.0, 64.0, 60.0, 68.0, 64.0, 66.0, 60.0, 62.0, 66.0, 62.0, 62.0, 58.25, 64.0, 60.0, 62.0, 60.0, 62.0, 62.0, 62.0, 68.0, 54.75]","[10.9375, 7.03125, 6.65625, 6.53125, 6.40625, 6.28125, 6.28125, 6.09375, 5.9375, 6.0, 5.96875, 5.84375, 5.71875, 5.78125, 5.6875, 5.625, 5.65625, 5.5625, 5.625, 5.53125, 5.40625, 5.46875, 5.40625, 5.375, 5.34375, 5.40625, 5.3125, 5.3125, 5.3125, 5.3125, 5.1875, 5.1875, 5.15625, 5.25, 5.15625, 5.1875, 5.15625, 5.09375, 5.125, 5.09375, 5.03125, 5.125, 5.09375, 5.0625, 5.03125, 5.0625, 5.0625, 5.0625, 5.03125, 5.03125, 5.0, 5.0, 4.96875, 4.90625, 5.0, 5.03125, 4.9375, 5.0, 4.96875, 5.0, 5.0, 4.9375, 4.90625, 4.90625, 4.9375, 4.9375, 4.96875, 4.8125, 4.875, 4.90625, 4.9375, 4.875, 4.90625, 4.84375, 4.90625, 4.8125, 4.8125, 4.875, 4.9375, 4.90625, 4.84375, 4.875, 4.84375, 4.8125, 4.875, 4.8125, 4.78125, 4.78125, 4.84375, 4.78125, 4.8125, 4.78125, 4.75, 4.78125, 4.78125, 4.6875, 4.71875, 4.78125, 4.78125, 4.71875, 4.625, 4.625, 4.71875, 4.65625, 4.625, 4.71875, 4.71875, 4.75, 4.65625, 4.6875, 4.625, 4.6875, 4.59375, 4.625, 4.59375, 4.625, 4.71875, 4.59375, 4.625, 4.53125, 4.5625, 4.59375, 4.59375, 4.65625, 4.59375, 4.53125, 4.59375, 4.625, 4.5625, 4.59375, 4.53125, 4.53125, 4.53125, 4.625, 4.5, 4.53125, 4.53125, 4.5625, 4.5, 4.46875, 4.4375, 4.59375, 4.5, 4.5625, 4.53125, 4.5625, 4.46875, 4.40625, 4.5, 4.46875, 4.53125, 4.4375, 4.46875, 4.40625, 4.4375, 4.46875, 4.5, 4.40625, 4.5, 4.53125, 4.53125, 4.40625, 4.46875, 4.53125, 4.40625, 4.4375, 4.46875, 4.4375, 4.375, 4.40625, 4.34375, 4.28125, 4.46875, 4.40625, 4.40625, 4.375, 4.34375, 4.34375, 4.34375, 4.4375, 4.53125, 4.5, 4.34375, 4.4375, 4.40625, 4.375, 4.34375, 4.28125, 4.34375, 4.25, 4.375, 4.3125, 4.34375, 4.375, 4.34375, 4.3125, 4.3125, 4.34375, 4.28125, 4.40625, 4.34375, 4.34375, 4.25, 4.28125, 4.375, 4.3125, 4.28125, 4.25, 4.21875, 4.34375, 4.28125, 4.28125, 4.28125, 4.25, 4.28125, 4.28125, 4.25, 4.25, 4.34375, 4.3125, 4.25, 4.28125, 4.28125, 4.28125, 4.21875, 4.25, 4.28125, 4.34375, 4.1875, 4.1875, 4.1875, 4.28125, 4.25, 4.21875, 4.25, 4.25, 4.3125, 4.21875, 4.1875, 4.1875, 4.15625, 4.21875, 4.21875, 4.21875, 4.1875, 4.15625, 4.1875, 4.1875, 4.15625, 4.28125, 4.15625, 4.125, 4.1875, 4.25, 4.1875, 4.1875, 4.15625, 4.21875, 4.125, 4.125, 4.1875, 4.21875, 4.28125, 4.0625, 4.21875, 4.15625, 4.15625, 4.1875, 4.125, 4.1875, 4.21875, 4.15625, 4.15625, 4.03125, 4.15625, 4.15625, 4.125, 4.09375, 4.125, 4.1875, 4.15625, 4.125, 4.15625, 4.03125, 4.15625, 4.09375, 4.125, 4.125, 4.21875, 4.125, 4.125, 4.15625, 4.15625, 4.0625, 4.09375, 4.125, 4.125, 4.1875, 4.1875, 4.09375]","[56320.0, 1136.0, 780.0, 688.0, 608.0, 536.0, 536.0, 444.0, 380.0, 404.0, 392.0, 346.0, 304.0, 324.0, 296.0, 278.0, 286.0, 260.0, 278.0, 253.0, 223.0, 237.0, 223.0, 216.0, 209.0, 223.0, 203.0, 203.0, 203.0, 203.0, 179.0, 179.0, 174.0, 191.0, 174.0, 179.0, 174.0, 163.0, 168.0, 163.0, 153.0, 168.0, 163.0, 158.0, 153.0, 158.0, 158.0, 158.0, 153.0, 153.0, 149.0, 149.0, 144.0, 135.0, 149.0, 153.0, 140.0, 149.0, 144.0, 149.0, 149.0, 140.0, 135.0, 135.0, 140.0, 140.0, 144.0, 123.0, 131.0, 135.0, 140.0, 131.0, 135.0, 127.0, 135.0, 123.0, 123.0, 131.0, 140.0, 135.0, 127.0, 131.0, 127.0, 123.0, 131.0, 123.0, 119.5, 119.5, 127.0, 119.5, 123.0, 119.5, 115.5, 119.5, 119.5, 108.5, 112.0, 119.5, 119.5, 112.0, 102.0, 102.0, 112.0, 105.5, 102.0, 112.0, 112.0, 115.5, 105.5, 108.5, 102.0, 108.5, 99.0, 102.0, 99.0, 102.0, 112.0, 99.0, 102.0, 93.0, 96.0, 99.0, 99.0, 105.5, 99.0, 93.0, 99.0, 102.0, 96.0, 99.0, 93.0, 93.0, 93.0, 102.0, 90.0, 93.0, 93.0, 96.0, 90.0, 87.5, 84.5, 99.0, 90.0, 96.0, 93.0, 96.0, 87.5, 82.0, 90.0, 87.5, 93.0, 84.5, 87.5, 82.0, 84.5, 87.5, 90.0, 82.0, 90.0, 93.0, 93.0, 82.0, 87.5, 93.0, 82.0, 84.5, 87.5, 84.5, 79.5, 82.0, 77.0, 72.5, 87.5, 82.0, 82.0, 79.5, 77.0, 77.0, 77.0, 84.5, 93.0, 90.0, 77.0, 84.5, 82.0, 79.5, 77.0, 72.5, 77.0, 70.0, 79.5, 74.5, 77.0, 79.5, 77.0, 74.5, 74.5, 77.0, 72.5, 82.0, 77.0, 77.0, 70.0, 72.5, 79.5, 74.5, 72.5, 70.0, 68.0, 77.0, 72.5, 72.5, 72.5, 70.0, 72.5, 72.5, 70.0, 70.0, 77.0, 74.5, 70.0, 72.5, 72.5, 72.5, 68.0, 70.0, 72.5, 77.0, 66.0, 66.0, 66.0, 72.5, 70.0, 68.0, 70.0, 70.0, 74.5, 68.0, 66.0, 66.0, 64.0, 68.0, 68.0, 68.0, 66.0, 64.0, 66.0, 66.0, 64.0, 72.5, 64.0, 62.0, 66.0, 70.0, 66.0, 66.0, 64.0, 68.0, 62.0, 62.0, 66.0, 68.0, 72.5, 58.25, 68.0, 64.0, 64.0, 66.0, 62.0, 66.0, 68.0, 64.0, 64.0, 56.25, 64.0, 64.0, 62.0, 60.0, 62.0, 66.0, 64.0, 62.0, 64.0, 56.25, 64.0, 60.0, 62.0, 62.0, 68.0, 62.0, 62.0, 64.0, 64.0, 58.25, 60.0, 62.0, 62.0, 66.0, 66.0, 60.0]","[10.9375, 7.28125, 6.96875, 6.875, 6.78125, 6.6875, 6.71875, 6.53125, 6.40625, 6.5, 6.4375, 6.34375, 6.21875, 6.28125, 6.21875, 6.125, 6.15625, 6.09375, 6.15625, 6.0625, 5.96875, 6.0, 5.96875, 5.9375, 5.90625, 6.0, 5.90625, 5.90625, 5.875, 5.9375, 5.8125, 5.84375, 5.75, 5.875, 5.78125, 5.8125, 5.78125, 5.71875, 5.75, 5.71875, 5.6875, 5.75, 5.75, 5.71875, 5.6875, 5.71875, 5.71875, 5.71875, 5.71875, 5.6875, 5.65625, 5.6875, 5.625, 5.59375, 5.65625, 5.65625, 5.59375, 5.6875, 5.625, 5.6875, 5.6875, 5.59375, 5.59375, 5.625, 5.59375, 5.59375, 5.625, 5.5, 5.5625, 5.59375, 5.625, 5.5625, 5.5625, 5.53125, 5.59375, 5.5, 5.5, 5.5625, 5.59375, 5.59375, 5.59375, 5.5625, 5.5625, 5.46875, 5.5625, 5.53125, 5.46875, 5.5, 5.53125, 5.5, 5.53125, 5.46875, 5.46875, 5.46875, 5.5, 5.40625, 5.4375, 5.5, 5.5, 5.4375, 5.3125, 5.34375, 5.40625, 5.375, 5.375, 5.4375, 5.40625, 5.46875, 5.375, 5.4375, 5.375, 5.4375, 5.34375, 5.375, 5.34375, 5.375, 5.4375, 5.375, 5.34375, 5.28125, 5.3125, 5.34375, 5.34375, 5.40625, 5.3125, 5.28125, 5.34375, 5.375, 5.3125, 5.34375, 5.28125, 5.28125, 5.28125, 5.375, 5.25, 5.3125, 5.28125, 5.28125, 5.28125, 5.25, 5.1875, 5.375, 5.25, 5.3125, 5.3125, 5.34375, 5.25, 5.1875, 5.28125, 5.25, 5.28125, 5.21875, 5.25, 5.21875, 5.21875, 5.21875, 5.28125, 5.21875, 5.28125, 5.28125, 5.28125, 5.1875, 5.21875, 5.3125, 5.21875, 5.25, 5.25, 5.25, 5.15625, 5.1875, 5.15625, 5.09375, 5.25, 5.21875, 5.21875, 5.15625, 5.1875, 5.125, 5.15625, 5.25, 5.3125, 5.28125, 5.15625, 5.21875, 5.1875, 5.1875, 5.125, 5.125, 5.125, 5.09375, 5.21875, 5.125, 5.15625, 5.15625, 5.125, 5.125, 5.15625, 5.15625, 5.125, 5.21875, 5.15625, 5.15625, 5.0625, 5.09375, 5.1875, 5.125, 5.09375, 5.03125, 5.03125, 5.15625, 5.09375, 5.09375, 5.09375, 5.09375, 5.125, 5.125, 5.09375, 5.09375, 5.15625, 5.125, 5.0625, 5.09375, 5.125, 5.125, 5.0625, 5.09375, 5.125, 5.15625, 5.0, 5.03125, 5.0, 5.09375, 5.09375, 5.03125, 5.09375, 5.0625, 5.09375, 5.0625, 5.0625, 5.03125, 5.0, 5.03125, 5.0625, 5.03125, 5.03125, 5.0, 5.0, 5.03125, 5.0, 5.125, 5.0, 5.0, 5.03125, 5.09375, 5.03125, 5.03125, 5.03125, 5.0625, 4.96875, 4.9375, 5.0625, 5.0625, 5.09375, 4.90625, 5.09375, 5.03125, 5.03125, 5.03125, 4.96875, 5.03125, 5.09375, 5.0, 5.0, 4.90625, 5.0, 5.0, 4.96875, 4.9375, 4.96875, 5.03125, 5.0, 4.9375, 5.03125, 4.90625, 5.0, 4.96875, 5.0, 4.96875, 5.03125, 4.96875, 4.96875, 5.03125, 5.0, 4.90625, 4.9375, 4.96875, 5.0, 5.0625, 5.0625, 4.9375]","[56320.0, 1456.0, 1064.0, 968.0, 884.0, 804.0, 828.0, 688.0, 608.0, 664.0, 624.0, 568.0, 502.0, 536.0, 502.0, 458.0, 472.0, 444.0, 472.0, 430.0, 392.0, 404.0, 392.0, 380.0, 368.0, 404.0, 368.0, 368.0, 356.0, 380.0, 334.0, 346.0, 314.0, 356.0, 324.0, 334.0, 324.0, 304.0, 314.0, 304.0, 296.0, 314.0, 314.0, 304.0, 296.0, 304.0, 304.0, 304.0, 304.0, 296.0, 286.0, 296.0, 278.0, 270.0, 286.0, 286.0, 270.0, 296.0, 278.0, 296.0, 296.0, 270.0, 270.0, 278.0, 270.0, 270.0, 278.0, 245.0, 260.0, 270.0, 278.0, 260.0, 260.0, 253.0, 270.0, 245.0, 245.0, 260.0, 270.0, 270.0, 270.0, 260.0, 260.0, 237.0, 260.0, 253.0, 237.0, 245.0, 253.0, 245.0, 253.0, 237.0, 237.0, 237.0, 245.0, 223.0, 230.0, 245.0, 245.0, 230.0, 203.0, 209.0, 223.0, 216.0, 216.0, 230.0, 223.0, 237.0, 216.0, 230.0, 216.0, 230.0, 209.0, 216.0, 209.0, 216.0, 230.0, 216.0, 209.0, 197.0, 203.0, 209.0, 209.0, 223.0, 203.0, 197.0, 209.0, 216.0, 203.0, 209.0, 197.0, 197.0, 197.0, 216.0, 191.0, 203.0, 197.0, 197.0, 197.0, 191.0, 179.0, 216.0, 191.0, 203.0, 203.0, 209.0, 191.0, 179.0, 197.0, 191.0, 197.0, 185.0, 191.0, 185.0, 185.0, 185.0, 197.0, 185.0, 197.0, 197.0, 197.0, 179.0, 185.0, 203.0, 185.0, 191.0, 191.0, 191.0, 174.0, 179.0, 174.0, 163.0, 191.0, 185.0, 185.0, 174.0, 179.0, 168.0, 174.0, 191.0, 203.0, 197.0, 174.0, 185.0, 179.0, 179.0, 168.0, 168.0, 168.0, 163.0, 185.0, 168.0, 174.0, 174.0, 168.0, 168.0, 174.0, 174.0, 168.0, 185.0, 174.0, 174.0, 158.0, 163.0, 179.0, 168.0, 163.0, 153.0, 153.0, 174.0, 163.0, 163.0, 163.0, 163.0, 168.0, 168.0, 163.0, 163.0, 174.0, 168.0, 158.0, 163.0, 168.0, 168.0, 158.0, 163.0, 168.0, 174.0, 149.0, 153.0, 149.0, 163.0, 163.0, 153.0, 163.0, 158.0, 163.0, 158.0, 158.0, 153.0, 149.0, 153.0, 158.0, 153.0, 153.0, 149.0, 149.0, 153.0, 149.0, 168.0, 149.0, 149.0, 153.0, 163.0, 153.0, 153.0, 153.0, 158.0, 144.0, 140.0, 158.0, 158.0, 163.0, 135.0, 163.0, 153.0, 153.0, 153.0, 144.0, 153.0, 163.0, 149.0, 149.0, 135.0, 149.0, 149.0, 144.0, 140.0, 144.0, 153.0, 149.0, 140.0, 153.0, 135.0, 149.0, 144.0, 149.0, 144.0, 153.0, 144.0, 144.0, 153.0, 149.0, 135.0, 140.0, 144.0, 149.0, 158.0, 158.0, 140.0]","[1.5167832316365093e-05, 0.0800388753414154, 0.08464591205120087, 0.09447161853313446, 0.09509994834661484, 0.09604717791080475, 0.1006198525428772, 0.10950151830911636, 0.10486488044261932, 0.10877631604671478, 0.10806284099817276, 0.11330588161945343, 0.12200399488210678, 0.1117272600531578, 0.11856657266616821, 0.11440150439739227, 0.1196594089269638, 0.12666746973991394, 0.1161406859755516, 0.12593166530132294, 0.12628953158855438, 0.1255161315202713, 0.12115941941738129, 0.14065425097942352, 0.13101305067539215, 0.12728455662727356, 0.13442832231521606, 0.13444072008132935, 0.1321565806865692, 0.1343158334493637, 0.12381488084793091, 0.137865349650383, 0.13498885929584503, 0.12489333003759384, 0.14140021800994873, 0.13545599579811096, 0.13825349509716034, 0.14601829648017883, 0.1372830718755722, 0.1572590470314026, 0.13092462718486786, 0.1340693086385727, 0.13403740525245667, 0.13955354690551758, 0.1444779485464096, 0.14278079569339752, 0.15194900333881378, 0.13165690004825592, 0.13408102095127106, 0.13440893590450287, 0.14158497750759125, 0.14100097119808197, 0.14739090204238892, 0.14227253198623657, 0.13091528415679932, 0.14153926074504852, 0.1375824213027954, 0.13669174909591675, 0.14278781414031982, 0.1286783069372177, 0.13369472324848175, 0.15133802592754364, 0.14872272312641144, 0.1392122358083725, 0.13615787029266357, 0.13805542886257172, 0.14633256196975708, 0.1467636376619339, 0.16022007167339325, 0.15084391832351685, 0.14126372337341309, 0.15408939123153687, 0.14495468139648438, 0.1410079151391983, 0.13314741849899292, 0.15386725962162018, 0.14450646936893463, 0.14090341329574585, 0.15027755498886108, 0.1461327224969864, 0.12928767502307892, 0.14358600974082947, 0.14407871663570404, 0.14446471631526947, 0.15547595918178558, 0.1587504744529724, 0.1391351968050003, 0.1466660499572754, 0.14239159226417542, 0.15112121403217316, 0.15703058242797852, 0.145155668258667, 0.15303465723991394, 0.13896748423576355, 0.14968137443065643, 0.15029357373714447, 0.16501127183437347, 0.14825324714183807, 0.1640976369380951, 0.15033167600631714, 0.1582948863506317, 0.16641300916671753, 0.15572386980056763, 0.17362643778324127, 0.16619163751602173, 0.16184794902801514, 0.15601760149002075, 0.15756483376026154, 0.16322815418243408, 0.1450926810503006, 0.1502600908279419, 0.16347721219062805, 0.15465255081653595, 0.16158737242221832, 0.1512601226568222, 0.15832366049289703, 0.1561032086610794, 0.15955261886119843, 0.15114852786064148, 0.1684809923171997, 0.1711411476135254, 0.1535647064447403, 0.15894503891468048, 0.16450552642345428, 0.17400005459785461, 0.15709620714187622, 0.1704491823911667, 0.16426877677440643, 0.16562038660049438, 0.16204743087291718, 0.17721442878246307, 0.16189692914485931, 0.16532595455646515, 0.15315164625644684, 0.16789039969444275, 0.17857196927070618, 0.1593569666147232, 0.14723142981529236, 0.16974718868732452, 0.1517326533794403, 0.17155084013938904, 0.16972944140434265, 0.16290685534477234, 0.17308509349822998, 0.15914511680603027, 0.16520319879055023, 0.16068395972251892, 0.16160406172275543, 0.18101702630519867, 0.1639416366815567, 0.1630500853061676, 0.16422593593597412, 0.16534079611301422, 0.17670920491218567, 0.1717231571674347, 0.16189634799957275, 0.16625475883483887, 0.1692511886358261, 0.1747477948665619, 0.1741885542869568, 0.16062979400157928, 0.17123915255069733, 0.16893012821674347, 0.1566321849822998, 0.17887836694717407, 0.16886064410209656, 0.15924428403377533, 0.16140061616897583, 0.16003289818763733, 0.16090156137943268, 0.17834141850471497, 0.17124484479427338, 0.1602146178483963, 0.16234064102172852, 0.16581834852695465, 0.17279742658138275, 0.17473097145557404, 0.17849299311637878, 0.1642325222492218, 0.16707110404968262, 0.16622643172740936, 0.16048403084278107, 0.18997494876384735, 0.17301936447620392, 0.17222508788108826, 0.17860953509807587, 0.17283256351947784, 0.17309214174747467, 0.195791557431221, 0.16602972149848938, 0.18053796887397766, 0.16435091197490692, 0.1931557059288025, 0.17806369066238403, 0.18549023568630219, 0.18921144306659698, 0.18432675302028656, 0.1637713760137558, 0.17338217794895172, 0.1745937168598175, 0.1589794158935547, 0.18087847530841827, 0.15656206011772156, 0.1801634579896927, 0.1872098296880722, 0.17506691813468933, 0.17763037979602814, 0.17950238287448883, 0.18200814723968506, 0.15644608438014984, 0.18483535945415497, 0.16864390671253204, 0.19443011283874512, 0.17467188835144043, 0.17348046600818634, 0.17834298312664032, 0.18558865785598755, 0.1834651678800583, 0.16490547358989716, 0.18801350891590118, 0.1906469315290451, 0.17535516619682312, 0.16195200383663177, 0.1698213517665863, 0.1945151537656784, 0.17977271974086761, 0.18516768515110016, 0.17917591333389282, 0.1847684383392334, 0.17512381076812744, 0.16590239107608795, 0.169444739818573, 0.17171348631381989, 0.18310457468032837, 0.16576865315437317, 0.17987869679927826, 0.17472612857818604, 0.19259996712207794, 0.1790340542793274, 0.17808905243873596, 0.1968507617712021, 0.1677905172109604, 0.1814424842596054, 0.1701347678899765, 0.17081937193870544, 0.18629781901836395, 0.1775689572095871, 0.19720174372196198, 0.20128941535949707, 0.18587829172611237, 0.17867803573608398, 0.19867852330207825, 0.18281197547912598, 0.17324738204479218, 0.18402184545993805, 0.18379825353622437, 0.17590351402759552, 0.18584947288036346, 0.19405239820480347, 0.17805954813957214, 0.18098567426204681, 0.18106989562511444, 0.15969835221767426, 0.17565637826919556, 0.18340344727039337, 0.1768713742494583, 0.1732158660888672, 0.18549208343029022, 0.18471820652484894, 0.1931026130914688, 0.17733636498451233, 0.18952588737010956, 0.19494080543518066, 0.1770680993795395, 0.1778753399848938, 0.1877385377883911, 0.19862481951713562, 0.1905694454908371, 0.1803271323442459, 0.17655439674854279, 0.1816885769367218, 0.17797355353832245, 0.18765375018119812, 0.20397290587425232, 0.18620260059833527, 0.17097575962543488, 0.18426911532878876, 0.20485873520374298, 0.16037075221538544, 0.1830037534236908, 0.17298823595046997, 0.16925019025802612, 0.17300842702388763, 0.1919473111629486, 0.18815256655216217, 0.17452365159988403, 0.19827507436275482, 0.16597206890583038, 0.19865600764751434, 0.1678418666124344]","[1.0706752618716564e-05, 0.08106227964162827, 0.08579008281230927, 0.09592372179031372, 0.09636297076940536, 0.09868885576725006, 0.1021488755941391, 0.11196456849575043, 0.10797745734453201, 0.11331856995820999, 0.11060962826013565, 0.11735064536333084, 0.12451024353504181, 0.1143169030547142, 0.12186479568481445, 0.11615659296512604, 0.12330612540245056, 0.1296771764755249, 0.11781135201454163, 0.13041061162948608, 0.13104349374771118, 0.12855231761932373, 0.12663143873214722, 0.1448565125465393, 0.13762812316417694, 0.13110314309597015, 0.13901810348033905, 0.13897299766540527, 0.13459955155849457, 0.13963019847869873, 0.12928350269794464, 0.14341968297958374, 0.13879019021987915, 0.1286955028772354, 0.1464790552854538, 0.14238180220127106, 0.14481621980667114, 0.15108606219291687, 0.14353452622890472, 0.16307373344898224, 0.13726475834846497, 0.14070485532283783, 0.138838991522789, 0.14339977502822876, 0.14959096908569336, 0.14878863096237183, 0.1605677753686905, 0.13633443415164948, 0.13979345560073853, 0.1411840319633484, 0.14711830019950867, 0.14792734384536743, 0.15108506381511688, 0.1502104550600052, 0.13528265058994293, 0.14652109146118164, 0.1434057056903839, 0.1445508599281311, 0.14757341146469116, 0.1346530169248581, 0.138269305229187, 0.15685120224952698, 0.1528196930885315, 0.14617137610912323, 0.14344823360443115, 0.1425682008266449, 0.15023921430110931, 0.15378938615322113, 0.16601572930812836, 0.1574929654598236, 0.14623841643333435, 0.1604740172624588, 0.1507377326488495, 0.14789260923862457, 0.13765758275985718, 0.16043204069137573, 0.15068288147449493, 0.14846156537532806, 0.15793080627918243, 0.1525258719921112, 0.13603846728801727, 0.15102538466453552, 0.14973050355911255, 0.14868351817131042, 0.16158601641654968, 0.16750693321228027, 0.14235906302928925, 0.1546684056520462, 0.14843833446502686, 0.15851595997810364, 0.16412577033042908, 0.1509547233581543, 0.16065524518489838, 0.14506398141384125, 0.15841320157051086, 0.15572796761989594, 0.17189908027648926, 0.15353013575077057, 0.17149056494235992, 0.1557294726371765, 0.16477595269680023, 0.17608751356601715, 0.16372178494930267, 0.18040961027145386, 0.17250090837478638, 0.16798193752765656, 0.16108612716197968, 0.16378812491893768, 0.16979114711284637, 0.1541193425655365, 0.1583336889743805, 0.1697138249874115, 0.1616518497467041, 0.1694648414850235, 0.15831585228443146, 0.16534876823425293, 0.16260293126106262, 0.1678098738193512, 0.1558576375246048, 0.1752520054578781, 0.18010275065898895, 0.1625811904668808, 0.1671336591243744, 0.1730721890926361, 0.1798863559961319, 0.16338959336280823, 0.17520131170749664, 0.17247432470321655, 0.1747998744249344, 0.17176274955272675, 0.18418914079666138, 0.16866116225719452, 0.1722152680158615, 0.16201865673065186, 0.17558199167251587, 0.18692538142204285, 0.16961467266082764, 0.15582484006881714, 0.17922569811344147, 0.1602858006954193, 0.1762382686138153, 0.17960189282894135, 0.17061007022857666, 0.17829598486423492, 0.16526493430137634, 0.17536163330078125, 0.1694931536912918, 0.16999025642871857, 0.1912877857685089, 0.17654991149902344, 0.1699112206697464, 0.1713567078113556, 0.17145641148090363, 0.18702873587608337, 0.18018625676631927, 0.16798919439315796, 0.173476904630661, 0.18113546073436737, 0.182257279753685, 0.1828964203596115, 0.1698301136493683, 0.18066643178462982, 0.1778988242149353, 0.1652832329273224, 0.18999303877353668, 0.176735520362854, 0.1696043461561203, 0.17031586170196533, 0.16697347164154053, 0.16693063080310822, 0.1892484873533249, 0.17893193662166595, 0.16978669166564941, 0.17538604140281677, 0.17614291608333588, 0.18045957386493683, 0.18454870581626892, 0.18749798834323883, 0.173528790473938, 0.1789732426404953, 0.17648254334926605, 0.1679704636335373, 0.19659920036792755, 0.18279777467250824, 0.18314845860004425, 0.1867785006761551, 0.17930607497692108, 0.184527188539505, 0.20653080940246582, 0.17890626192092896, 0.19309982657432556, 0.1737646609544754, 0.20238807797431946, 0.18836389482021332, 0.1945056915283203, 0.20049706101417542, 0.19595591723918915, 0.1731482744216919, 0.18327128887176514, 0.18445926904678345, 0.16837947070598602, 0.18897351622581482, 0.1644735485315323, 0.19065043330192566, 0.19461758434772491, 0.18372149765491486, 0.1871689260005951, 0.18831133842468262, 0.19214460253715515, 0.16678079962730408, 0.19256353378295898, 0.17895197868347168, 0.20549309253692627, 0.18788611888885498, 0.18557648360729218, 0.18924438953399658, 0.19462181627750397, 0.19708982110023499, 0.17484262585639954, 0.19491098821163177, 0.20088616013526917, 0.1856907308101654, 0.17095719277858734, 0.18203416466712952, 0.20203328132629395, 0.18948404490947723, 0.19412821531295776, 0.19192415475845337, 0.19194424152374268, 0.18686221539974213, 0.17449922859668732, 0.17968088388442993, 0.1810653805732727, 0.19159208238124847, 0.17832037806510925, 0.18921953439712524, 0.1810506135225296, 0.2050066888332367, 0.19096481800079346, 0.19021953642368317, 0.20897984504699707, 0.17550072073936462, 0.19528475403785706, 0.1795387864112854, 0.18232794106006622, 0.19658567011356354, 0.1833689957857132, 0.20965775847434998, 0.21191345155239105, 0.1940837949514389, 0.18602561950683594, 0.21153517067432404, 0.1917300820350647, 0.1829184740781784, 0.19403384625911713, 0.19102470576763153, 0.18402978777885437, 0.19598941504955292, 0.2074381560087204, 0.1851574331521988, 0.1888074427843094, 0.19343136250972748, 0.17004764080047607, 0.18819677829742432, 0.1932506114244461, 0.1851237714290619, 0.1848999261856079, 0.1949799358844757, 0.19265790283679962, 0.20390021800994873, 0.187491312623024, 0.20043864846229553, 0.20800307393074036, 0.18458443880081177, 0.18783821165561676, 0.19677898287773132, 0.20763921737670898, 0.2004663497209549, 0.19120651483535767, 0.1855316013097763, 0.1898753046989441, 0.18593034148216248, 0.2006477564573288, 0.2131919413805008, 0.19562099874019623, 0.1802605390548706, 0.1971939504146576, 0.2163590043783188, 0.17129762470722198, 0.19440163671970367, 0.18105199933052063, 0.1799052655696869, 0.18240401148796082, 0.20380298793315887, 0.1961195319890976, 0.18503570556640625, 0.21109198033809662, 0.17584770917892456, 0.2099328190088272, 0.17505614459514618]","[1.2283804608159699e-05, 0.09780365228652954, 0.10358932614326477, 0.11832989007234573, 0.1164504662156105, 0.1209217756986618, 0.12187991291284561, 0.13270194828510284, 0.1331564486026764, 0.13847532868385315, 0.13203862309455872, 0.1454893797636032, 0.14892885088920593, 0.14390477538108826, 0.14788472652435303, 0.14403989911079407, 0.14827780425548553, 0.15665535628795624, 0.146177276968956, 0.16088098287582397, 0.15788373351097107, 0.15644653141498566, 0.1576749086380005, 0.17429490387439728, 0.16923397779464722, 0.1628464013338089, 0.1700447052717209, 0.17150647938251495, 0.16678950190544128, 0.16968847811222076, 0.1632763296365738, 0.1770341992378235, 0.17185042798519135, 0.16030365228652954, 0.17856967449188232, 0.17116253077983856, 0.1779923290014267, 0.18437990546226501, 0.17974890768527985, 0.19909590482711792, 0.17133450508117676, 0.1700078547000885, 0.17546185851097107, 0.18026483058929443, 0.1789873242378235, 0.18435533344745636, 0.19349448382854462, 0.17058520019054413, 0.17718160152435303, 0.17444230616092682, 0.18043680489063263, 0.18248820304870605, 0.18708235025405884, 0.18618562817573547, 0.1687917560338974, 0.17714475095272064, 0.17772208154201508, 0.18067020177841187, 0.1820705533027649, 0.16847237944602966, 0.17515477538108826, 0.19445262849330902, 0.19077977538108826, 0.18490810692310333, 0.178213432431221, 0.17930670082569122, 0.18592765927314758, 0.19151680171489716, 0.20070508122444153, 0.1883721500635147, 0.18153005838394165, 0.19866597652435303, 0.18726660311222076, 0.18202140927314758, 0.17689907550811768, 0.20194575190544128, 0.18634530901908875, 0.1830778270959854, 0.19654087722301483, 0.1893671303987503, 0.17280855774879456, 0.1865418553352356, 0.18920744955539703, 0.1848098337650299, 0.2001277506351471, 0.20356720685958862, 0.18015427887439728, 0.1967865526676178, 0.1827707290649414, 0.19424380362033844, 0.1990467756986618, 0.18509237468242645, 0.20219142735004425, 0.1830286830663681, 0.19659000635147095, 0.19751130044460297, 0.21053212881088257, 0.19225382804870605, 0.21327140927314758, 0.1955336034297943, 0.20080335438251495, 0.21760760247707367, 0.19988207519054413, 0.2183569073677063, 0.2095002830028534, 0.20755945146083832, 0.19703222811222076, 0.20617137849330902, 0.2129766047000885, 0.19073063135147095, 0.1993415802717209, 0.20887380838394165, 0.20349350571632385, 0.20805080235004425, 0.19816233217716217, 0.21012675762176514, 0.20119643211364746, 0.20808765292167664, 0.20028743147850037, 0.21846745908260345, 0.2249533087015152, 0.2079034000635147, 0.20861585438251495, 0.21155168116092682, 0.21925362944602966, 0.20232655107975006, 0.21637922525405884, 0.21421727538108826, 0.2135785073041916, 0.2143646776676178, 0.2272503823041916, 0.21660032868385315, 0.218921959400177, 0.20285475254058838, 0.2167108803987503, 0.22505158185958862, 0.20891065895557404, 0.19953812658786774, 0.22116990387439728, 0.20684698224067688, 0.2222631573677063, 0.22357752919197083, 0.21287833154201508, 0.21660032868385315, 0.20302672684192657, 0.21543335914611816, 0.2088492512702942, 0.21529825031757355, 0.2312057763338089, 0.21752160787582397, 0.21112175285816193, 0.211416557431221, 0.21490515768527985, 0.2287735790014267, 0.22354067862033844, 0.2097214013338089, 0.2174479067325592, 0.22060485184192657, 0.22379863262176514, 0.22698013484477997, 0.21203075349330902, 0.22672218084335327, 0.22327043116092682, 0.20957398414611816, 0.23414160311222076, 0.2236512303352356, 0.21343110501766205, 0.21481917798519135, 0.21343110501766205, 0.21327140927314758, 0.2349769026041031, 0.2241794317960739, 0.21160082519054413, 0.22185780107975006, 0.2203591763973236, 0.2320287823677063, 0.22733637690544128, 0.2312057763338089, 0.21825863420963287, 0.22077682614326477, 0.21559305489063263, 0.2131977081298828, 0.24310877919197083, 0.22680817544460297, 0.22679588198661804, 0.22957202792167664, 0.218921959400177, 0.233760803937912, 0.25136348605155945, 0.22177180647850037, 0.2434404343366623, 0.22075225412845612, 0.25084757804870605, 0.23227445781230927, 0.24076257646083832, 0.2464868277311325, 0.24373525381088257, 0.21960985660552979, 0.22441282868385315, 0.23028448224067688, 0.21264493465423584, 0.23239730298519135, 0.211109459400177, 0.23492775857448578, 0.24194180965423584, 0.228994682431221, 0.23252013325691223, 0.23206563293933868, 0.2432316094636917, 0.2110234797000885, 0.23846550285816193, 0.22935090959072113, 0.2511792480945587, 0.23457153141498566, 0.22938776016235352, 0.23577535152435303, 0.23803555965423584, 0.2434895783662796, 0.21725137531757355, 0.23982900381088257, 0.24845223128795624, 0.23351512849330902, 0.2189588099718094, 0.2256903350353241, 0.2470027357339859, 0.23587360978126526, 0.24046775698661804, 0.23481720685958862, 0.24113108217716217, 0.23592275381088257, 0.22136645019054413, 0.22710298001766205, 0.22874900698661804, 0.23236045241355896, 0.22710298001766205, 0.23968160152435303, 0.22494103014469147, 0.25058960914611816, 0.23599645495414734, 0.24189268052577972, 0.25384482741355896, 0.2230861783027649, 0.24077485501766205, 0.23050560057163239, 0.23847778141498566, 0.24233490228652954, 0.23206563293933868, 0.26090800762176514, 0.2576773762702942, 0.2444477081298828, 0.2341538816690445, 0.2676149606704712, 0.2426174283027649, 0.22667305171489716, 0.24156101047992706, 0.2391042560338974, 0.2318568080663681, 0.24893130362033844, 0.2550731897354126, 0.23634040355682373, 0.23986585438251495, 0.23813383281230927, 0.21598613262176514, 0.23605787754058838, 0.24373525381088257, 0.23039503395557404, 0.23587360978126526, 0.24342815577983856, 0.23705285787582397, 0.24906642735004425, 0.23040732741355896, 0.2517688572406769, 0.25526973605155945, 0.24132762849330902, 0.23412930965423584, 0.24221205711364746, 0.25840210914611816, 0.24949635565280914, 0.24125392735004425, 0.23755650222301483, 0.24027122557163239, 0.2357999086380005, 0.24565152823925018, 0.25870922207832336, 0.24046775698661804, 0.2259114533662796, 0.24767835438251495, 0.26456859707832336, 0.22116990387439728, 0.2454427033662796, 0.23306062817573547, 0.22927720844745636, 0.23104608058929443, 0.2533780336380005, 0.24879617989063263, 0.23326945304870605, 0.2624926269054413, 0.22555522620677948, 0.263229638338089, 0.22807340323925018]","[0.0, 0.027329571545124054, 0.03215260058641434, 0.03270357474684715, 0.03446660935878754, 0.03529822826385498, 0.037989791482686996, 0.036471545696258545, 0.03659452497959137, 0.039571769535541534, 0.03712086006999016, 0.03961994871497154, 0.044017244130373, 0.04103176295757294, 0.04153010621666908, 0.039801228791475296, 0.043441466987133026, 0.04397790506482124, 0.04171842336654663, 0.04651651903986931, 0.0478258840739727, 0.042972665280103683, 0.042145416140556335, 0.04917038232088089, 0.04605201259255409, 0.044619299471378326, 0.04749014228582382, 0.04552232101559639, 0.04576152563095093, 0.04714282229542732, 0.0438680462539196, 0.04755137488245964, 0.04675574600696564, 0.04541006311774254, 0.04779808968305588, 0.04801709204912186, 0.0499083511531353, 0.049349430948495865, 0.046973638236522675, 0.05400111898779869, 0.04606408625841141, 0.0485125295817852, 0.04599472135305405, 0.04831577092409134, 0.04794776067137718, 0.04770974814891815, 0.05287495627999306, 0.044461995363235474, 0.04651755094528198, 0.04749660938978195, 0.047559041529893875, 0.048968590795993805, 0.051716119050979614, 0.04943028464913368, 0.045742616057395935, 0.04847237095236778, 0.048086635768413544, 0.0474696047604084, 0.048356808722019196, 0.04433659464120865, 0.044994402676820755, 0.051085181534290314, 0.04826609045267105, 0.04697815701365471, 0.04642288759350777, 0.0444331057369709, 0.05231228843331337, 0.05011362582445145, 0.05272884666919708, 0.04945700615644455, 0.049253590404987335, 0.05333925783634186, 0.04856723174452782, 0.04671737924218178, 0.04526499658823013, 0.05143376439809799, 0.04838446155190468, 0.04719929024577141, 0.05092734098434448, 0.05196073651313782, 0.042718444019556046, 0.047999437898397446, 0.04785497859120369, 0.049504488706588745, 0.053238317370414734, 0.05340292304754257, 0.04477158561348915, 0.048945486545562744, 0.04587559774518013, 0.05074746161699295, 0.05183267965912819, 0.04659775272011757, 0.05012478306889534, 0.04614270478487015, 0.04911263287067413, 0.04789716750383377, 0.05466200411319733, 0.04977438598871231, 0.05389361083507538, 0.05037836357951164, 0.051186453551054, 0.05625583603978157, 0.052274905145168304, 0.058310192078351974, 0.052367087453603745, 0.052792564034461975, 0.05267970263957977, 0.05292387306690216, 0.054312124848365784, 0.04823986440896988, 0.05112076178193092, 0.05275437980890274, 0.04975501075387001, 0.053386420011520386, 0.04887983947992325, 0.0503254309296608, 0.05042818561196327, 0.05328165739774704, 0.048326000571250916, 0.053586069494485855, 0.05545252189040184, 0.05141063034534454, 0.050002336502075195, 0.05387739837169647, 0.054895516484975815, 0.051687393337488174, 0.05533946678042412, 0.05512712523341179, 0.05428604781627655, 0.05224476382136345, 0.05336426943540573, 0.05265365168452263, 0.053409066051244736, 0.052079662680625916, 0.0526253879070282, 0.05693560093641281, 0.052712634205818176, 0.04933364689350128, 0.05496412143111229, 0.04852989315986633, 0.053785376250743866, 0.054168131202459335, 0.05235283076763153, 0.05338236689567566, 0.05125143751502037, 0.05517143756151199, 0.052306465804576874, 0.051343534141778946, 0.05758233368396759, 0.05333583429455757, 0.05267222225666046, 0.051174260675907135, 0.05371369794011116, 0.05767250061035156, 0.05578797310590744, 0.0512365847826004, 0.0531332902610302, 0.05528269708156586, 0.05678622052073479, 0.0573287159204483, 0.05234880745410919, 0.05434076115489006, 0.05433639511466026, 0.05230819806456566, 0.0559566356241703, 0.0525052435696125, 0.05302676185965538, 0.05263769254088402, 0.04905000701546669, 0.04894629493355751, 0.056097280234098434, 0.053342998027801514, 0.052162520587444305, 0.05412048101425171, 0.05544683709740639, 0.056002985686063766, 0.05602221563458443, 0.05722147971391678, 0.05088500678539276, 0.051230791956186295, 0.05430044233798981, 0.05182395130395889, 0.05980003997683525, 0.0530887134373188, 0.055755648761987686, 0.05629277974367142, 0.052512165158987045, 0.05367152392864227, 0.06467091292142868, 0.053492628037929535, 0.060789287090301514, 0.053172800689935684, 0.06052539497613907, 0.0578632578253746, 0.058844175189733505, 0.05996834114193916, 0.057768553495407104, 0.05071445181965828, 0.05399312078952789, 0.05801913142204285, 0.049124788492918015, 0.05785393714904785, 0.048036474734544754, 0.05824403837323189, 0.057583145797252655, 0.05606187880039215, 0.05731051042675972, 0.05503622442483902, 0.05731360241770744, 0.05079171061515808, 0.05784701183438301, 0.05556594207882881, 0.062104374170303345, 0.05770708620548248, 0.05569085851311684, 0.05692099779844284, 0.058900460600852966, 0.06029810383915901, 0.05166138336062431, 0.05913124978542328, 0.06061882898211479, 0.05687003210186958, 0.05113846808671951, 0.05597434192895889, 0.061334267258644104, 0.058256056159734726, 0.05921665579080582, 0.05884005129337311, 0.05567813664674759, 0.05678572878241539, 0.0514688640832901, 0.052427779883146286, 0.054784294217824936, 0.058770980685949326, 0.05440668761730194, 0.05572899803519249, 0.0538254976272583, 0.06261155754327774, 0.054099470376968384, 0.05573270842432976, 0.059700097888708115, 0.05160865932703018, 0.05858122557401657, 0.05378253385424614, 0.05302443355321884, 0.05890436843037605, 0.052518103271722794, 0.06272640079259872, 0.06194772943854332, 0.05696781724691391, 0.052397165447473526, 0.06291414052248001, 0.05609903112053871, 0.051553621888160706, 0.060708969831466675, 0.056287676095962524, 0.05215691775083542, 0.057454392313957214, 0.0625043585896492, 0.05247471481561661, 0.05601394549012184, 0.057756081223487854, 0.04996493086218834, 0.05535012111067772, 0.0548439659178257, 0.053423698991537094, 0.055289022624492645, 0.05772332847118378, 0.054806388914585114, 0.06115756556391716, 0.05624085292220116, 0.06065278872847557, 0.05953248217701912, 0.05482742562890053, 0.05578575283288956, 0.058390263468027115, 0.060480765998363495, 0.05980362370610237, 0.054789382964372635, 0.0517970435321331, 0.055742014199495316, 0.057141516357660294, 0.059422869235277176, 0.06189175695180893, 0.05998922511935234, 0.052111200988292694, 0.05776660516858101, 0.06391868740320206, 0.0497899167239666, 0.059012725949287415, 0.05172573775053024, 0.051556989550590515, 0.052915364503860474, 0.05915611609816551, 0.056115616112947464, 0.05646805092692375, 0.06121445074677467, 0.04946676269173622, 0.060111213475465775, 0.05032531917095184]","[0.0, 0.040140192955732346, 0.04953519627451897, 0.05276662856340408, 0.05318867415189743, 0.0567229725420475, 0.05294625461101532, 0.05787098407745361, 0.058166589587926865, 0.0664764866232872, 0.05955862998962402, 0.06621550023555756, 0.07296761125326157, 0.06767315417528152, 0.0683455616235733, 0.06597474962472916, 0.07271518558263779, 0.07251959294080734, 0.07544045150279999, 0.07301650196313858, 0.07415492832660675, 0.07328526675701141, 0.06941863149404526, 0.08670290559530258, 0.07850417494773865, 0.07369951158761978, 0.08056683093309402, 0.08139457553625107, 0.07860609889030457, 0.08217362314462662, 0.07469320297241211, 0.08521635830402374, 0.08313476294279099, 0.07746478915214539, 0.08443165570497513, 0.08469854295253754, 0.08725100010633469, 0.08795958012342453, 0.08447443693876266, 0.09563492238521576, 0.08019900321960449, 0.08254560083150864, 0.08204787224531174, 0.08551540970802307, 0.08649943768978119, 0.0873078927397728, 0.08972571045160294, 0.07944048941135406, 0.08007152378559113, 0.08226460218429565, 0.08543947339057922, 0.08780519664287567, 0.09164617210626602, 0.08757825940847397, 0.08067505061626434, 0.0841047391295433, 0.08177229017019272, 0.08237789571285248, 0.08591568470001221, 0.07634501159191132, 0.08196721971035004, 0.09353042393922806, 0.08738572150468826, 0.08418045938014984, 0.08366640657186508, 0.07873650640249252, 0.08787136524915695, 0.08614381402730942, 0.10192856192588806, 0.09159348160028458, 0.08640170097351074, 0.09391199797391891, 0.08871287107467651, 0.08470525592565536, 0.08058535307645798, 0.09571637213230133, 0.08520772308111191, 0.08466029912233353, 0.08571428805589676, 0.08998741209506989, 0.07668468356132507, 0.087126225233078, 0.08971800655126572, 0.0870569571852684, 0.09626627713441849, 0.10151445120573044, 0.08137757331132889, 0.08769720047712326, 0.08400581777095795, 0.08975887298583984, 0.09301400184631348, 0.08592153340578079, 0.09394682198762894, 0.08375364542007446, 0.09243753552436829, 0.09186038374900818, 0.09935048222541809, 0.09325461834669113, 0.09998665004968643, 0.09087275713682175, 0.09396017342805862, 0.10200957953929901, 0.09394241124391556, 0.1074221283197403, 0.09576999396085739, 0.10037615895271301, 0.09589041024446487, 0.09500464051961899, 0.10043232142925262, 0.08839155733585358, 0.0936591774225235, 0.09814851731061935, 0.09225580841302872, 0.10151815414428711, 0.08984064310789108, 0.09359050542116165, 0.09312225133180618, 0.09653481841087341, 0.08691050857305527, 0.10424865037202835, 0.10857482999563217, 0.0961347222328186, 0.09416145831346512, 0.09656496345996857, 0.10248591005802155, 0.09949064254760742, 0.1042216345667839, 0.09706038236618042, 0.09880794584751129, 0.09921375662088394, 0.10688140988349915, 0.09768518805503845, 0.10088096559047699, 0.09177403151988983, 0.10230892151594162, 0.1070743203163147, 0.09502352774143219, 0.0870082676410675, 0.10257089883089066, 0.09024486690759659, 0.10927985608577728, 0.10487288236618042, 0.10121215879917145, 0.10086991637945175, 0.09457847476005554, 0.09827586263418198, 0.10057241469621658, 0.10105152428150177, 0.11100099235773087, 0.09945043176412582, 0.10203268378973007, 0.10040346533060074, 0.10072606801986694, 0.10761050134897232, 0.10361015796661377, 0.09773790836334229, 0.09818398952484131, 0.1047322005033493, 0.10299425572156906, 0.10439669340848923, 0.10070706158876419, 0.10722332447767258, 0.0985952764749527, 0.09507807344198227, 0.11284665018320084, 0.10404087603092194, 0.09547771513462067, 0.10482959449291229, 0.09801456332206726, 0.09630414098501205, 0.10816893726587296, 0.10474112629890442, 0.09985394030809402, 0.10064268112182617, 0.10118572413921356, 0.10128766298294067, 0.1076943501830101, 0.10763131827116013, 0.09950941056013107, 0.09993979334831238, 0.0989186018705368, 0.09881448745727539, 0.11328253895044327, 0.10171625763177872, 0.10433685779571533, 0.11349917203187943, 0.1055871844291687, 0.10550794750452042, 0.12058240175247192, 0.10090042650699615, 0.11338093131780624, 0.10645782947540283, 0.11637931317090988, 0.10993727296590805, 0.11250165104866028, 0.11779416352510452, 0.11357304453849792, 0.09851560741662979, 0.10267975181341171, 0.10400000214576721, 0.09682749211788177, 0.11268261075019836, 0.09635036438703537, 0.11289360374212265, 0.11789529025554657, 0.10895097255706787, 0.11252400279045105, 0.10825663059949875, 0.11513592302799225, 0.09372928738594055, 0.11342469602823257, 0.10496284812688828, 0.11666887253522873, 0.1090645045042038, 0.1048569530248642, 0.1068529561161995, 0.11311855912208557, 0.11559121310710907, 0.09610303491353989, 0.11681100726127625, 0.11470744013786316, 0.10795454680919647, 0.10355944186449051, 0.10403972864151001, 0.12040532380342484, 0.10964912176132202, 0.11889920383691788, 0.1123342216014862, 0.11042945086956024, 0.10565812885761261, 0.10034465044736862, 0.09930440038442612, 0.1010281965136528, 0.11095690727233887, 0.10170390456914902, 0.10876655578613281, 0.10818151384592056, 0.12104320526123047, 0.11175183951854706, 0.10771073400974274, 0.12185788154602051, 0.10066313296556473, 0.10471448302268982, 0.10245738923549652, 0.10558389127254486, 0.11201534420251846, 0.1056235060095787, 0.11971550434827805, 0.11432936787605286, 0.11098551005125046, 0.10718562453985214, 0.12088204175233841, 0.11031016707420349, 0.10087428987026215, 0.11622676998376846, 0.1110890805721283, 0.10789648443460464, 0.1159764900803566, 0.11710875481367111, 0.1076170951128006, 0.11292994767427444, 0.11509933322668076, 0.09980831295251846, 0.10618118941783905, 0.11239537596702576, 0.11170848459005356, 0.11061683297157288, 0.11330114305019379, 0.11433150619268417, 0.11831098794937134, 0.11114057153463364, 0.11443545669317245, 0.11152440309524536, 0.11273209750652313, 0.1069956123828888, 0.11401582509279251, 0.11990184336900711, 0.11586499959230423, 0.10848899930715561, 0.10490760952234268, 0.11251572519540787, 0.11094871163368225, 0.10799092799425125, 0.12224210053682327, 0.10855742543935776, 0.10015951097011566, 0.11156722903251648, 0.12524929642677307, 0.09986139088869095, 0.1113467738032341, 0.10541007667779922, 0.10594659298658371, 0.10241322219371796, 0.11357763409614563, 0.11627906560897827, 0.10967954993247986, 0.12490854412317276, 0.10122152417898178, 0.1191297397017479, 0.09984057396650314]","[0.0, 0.011350235901772976, 0.013671875, 0.010392099618911743, 0.012234670110046864, 0.010650059208273888, 0.01370872650295496, 0.015956662595272064, 0.010908018797636032, 0.014150943607091904, 0.01389298401772976, 0.012271521613001823, 0.018204599618911743, 0.012787440791726112, 0.015182782895863056, 0.012897995300590992, 0.017246462404727936, 0.017246462404727936, 0.015109080821275711, 0.015109080821275711, 0.01886792480945587, 0.014924823306500912, 0.013929835520684719, 0.02170548401772976, 0.016619987785816193, 0.013266509398818016, 0.016435731202363968, 0.01378242950886488, 0.016030365601181984, 0.01901533082127571, 0.013008549809455872, 0.01614091917872429, 0.01569870300590992, 0.01584610901772976, 0.016546284779906273, 0.016730543226003647, 0.016472583636641502, 0.016030365601181984, 0.013119104318320751, 0.01953125, 0.012750590220093727, 0.016841096803545952, 0.014224646613001823, 0.014666863717138767, 0.01772553101181984, 0.01577240601181984, 0.01975235901772976, 0.012713738717138767, 0.010981721803545952, 0.014150943607091904, 0.01577240601181984, 0.015330188907682896, 0.01720961183309555, 0.015735553577542305, 0.015145931392908096, 0.016030365601181984, 0.015367040410637856, 0.014740565791726112, 0.016951650381088257, 0.011313384398818016, 0.013929835520684719, 0.016656840220093727, 0.014335201121866703, 0.013303360901772976, 0.013266509398818016, 0.013561321422457695, 0.016877949237823486, 0.013929835520684719, 0.020231427624821663, 0.01894162781536579, 0.01691479980945587, 0.0179466400295496, 0.01691479980945587, 0.013229657895863056, 0.009176002815365791, 0.014519457705318928, 0.015882959589362144, 0.015477594919502735, 0.016325177624821663, 0.016030365601181984, 0.01374557800590992, 0.015735553577542305, 0.014261498115956783, 0.015219634398818016, 0.01558814849704504, 0.017099056392908096, 0.012529481202363968, 0.010060436092317104, 0.014224646613001823, 0.010944870300590992, 0.015625, 0.01389298401772976, 0.014408903196454048, 0.009581368416547775, 0.0119030075147748, 0.0079967575147748, 0.009618219919502735, 0.009360259398818016, 0.010613207705318928, 0.00998673401772976, 0.012160967104136944, 0.01779923401772976, 0.016030365601181984, 0.017172759398818016, 0.013303360901772976, 0.0159935150295496, 0.018057193607091904, 0.013303360901772976, 0.009286556392908096, 0.012160967104136944, 0.013487618416547775, 0.012345224618911743, 0.011276532895863056, 0.013413915410637856, 0.011055424809455872, 0.009212854318320751, 0.014814268797636032, 0.015367040410637856, 0.01160819549113512, 0.01691479980945587, 0.013929835520684719, 0.009323407895863056, 0.010723762214183807, 0.010244693607091904, 0.013303360901772976, 0.014408903196454048, 0.013119104318320751, 0.012087264098227024, 0.011423938907682896, 0.013450766913592815, 0.016656840220093727, 0.012861143797636032, 0.013229657895863056, 0.012492629699409008, 0.01381928101181984, 0.017983490601181984, 0.012050412595272064, 0.008770637214183807, 0.015072229318320751, 0.009176002815365791, 0.011423938907682896, 0.014261498115956783, 0.015109080821275711, 0.009765625, 0.014003537595272064, 0.010244693607091904, 0.013045401312410831, 0.007701945956796408, 0.014445754699409008, 0.010908018797636032, 0.010539504699409008, 0.01175560150295496, 0.013266509398818016, 0.01186615601181984, 0.01370872650295496, 0.008954893797636032, 0.00788620300590992, 0.006670106202363968, 0.009249704889953136, 0.007407134398818016, 0.009028596803545952, 0.010502653196454048, 0.010023584589362144, 0.010392099618911743, 0.010170990601181984, 0.007333431858569384, 0.0099498825147748, 0.006117335055023432, 0.009765625, 0.008365271613001823, 0.008328420110046864, 0.009323407895863056, 0.00681751174852252, 0.00589622650295496, 0.007259728852659464, 0.006485849153250456, 0.008438974618911743, 0.008107311092317104, 0.005048643797636032, 0.005859375, 0.007407134398818016, 0.005638266447931528, 0.007701945956796408, 0.0056014154106378555, 0.011239681392908096, 0.0075545404106378555, 0.00689121475443244, 0.006191037595272064, 0.00788620300590992, 0.006043632049113512, 0.006559552159160376, 0.0056014154106378555, 0.008733785711228848, 0.006559552159160376, 0.007001768797636032, 0.007001768797636032, 0.005417157895863056, 0.005527712404727936, 0.00784935150295496, 0.010207842104136944, 0.011129127815365791, 0.018352005630731583, 0.010207842104136944, 0.015293337404727936, 0.015145931392908096, 0.01389298401772976, 0.0138561325147748, 0.012271521613001823, 0.012897995300590992, 0.010170990601181984, 0.012603184208273888, 0.011239681392908096, 0.015956662595272064, 0.011129127815365791, 0.01186615601181984, 0.012050412595272064, 0.013413915410637856, 0.010097287595272064, 0.007628242950886488, 0.009507665410637856, 0.010797465220093727, 0.007149174809455872, 0.0056014154106378555, 0.009323407895863056, 0.010981721803545952, 0.010944870300590992, 0.010355248115956783, 0.009765625, 0.006412146147340536, 0.00689121475443244, 0.00784935150295496, 0.006706957705318928, 0.00689121475443244, 0.012897995300590992, 0.00792305450886488, 0.010576356202363968, 0.011202830821275711, 0.011387087404727936, 0.010207842104136944, 0.007665094453841448, 0.010613207705318928, 0.007591391447931528, 0.008770637214183807, 0.007443985901772976, 0.006043632049113512, 0.010207842104136944, 0.008070459589362144, 0.010760613717138767, 0.010686910711228848, 0.007738797459751368, 0.007333431858569384, 0.009065448306500912, 0.007665094453841448, 0.007407134398818016, 0.016509434208273888, 0.014740565791726112, 0.014114092104136944, 0.01577240601181984, 0.01809404417872429, 0.013119104318320751, 0.014040389098227024, 0.018425708636641502, 0.01160819549113512, 0.013671875, 0.016362028196454048, 0.015477594919502735, 0.014482606202363968, 0.017578125, 0.017688680440187454, 0.018388856202363968, 0.016841096803545952, 0.016362028196454048, 0.017467571422457695, 0.010650059208273888, 0.015035377815365791, 0.017320165410637856, 0.01824145019054413, 0.016841096803545952, 0.013450766913592815, 0.013045401312410831, 0.015403891913592815, 0.01569870300590992, 0.017246462404727936, 0.019862912595272064, 0.017320165410637856, 0.013082252815365791, 0.01621462218463421, 0.021594930440187454, 0.00987617950886488, 0.01569870300590992, 0.01168189849704504, 0.012640035711228848, 0.012713738717138767, 0.016251474618911743, 0.014187795110046864, 0.014593160711228848, 0.016804246231913567, 0.011276532895863056, 0.015514446422457695, 0.00998673401772976]","[10.5625, 10.5625, 10.5625, 10.5625, 10.5625, 6.125, 6.125, 6.125, 6.125, 6.125, 5.75, 5.75, 5.75, 5.75, 5.75, 5.40625, 5.40625, 5.40625, 5.40625, 5.40625, 5.21875, 5.21875, 5.21875, 5.21875, 5.21875, 5.09375, 5.09375, 5.09375, 5.09375, 5.09375, 5.03125, 5.03125, 5.03125, 5.03125, 5.03125, 4.9375, 4.9375, 4.9375, 4.9375, 4.9375, 4.84375, 4.84375, 4.84375, 4.84375, 4.84375, 4.8125, 4.8125, 4.8125, 4.8125, 4.8125, 4.75, 4.75, 4.75, 4.75, 4.75, 4.71875, 4.71875, 4.71875, 4.71875, 4.71875, 4.6875, 4.6875, 4.6875, 4.6875, 4.6875, 4.65625, 4.65625, 4.65625, 4.65625, 4.65625, 4.59375, 4.59375, 4.59375, 4.59375, 4.59375, 4.59375, 4.59375, 4.59375, 4.59375, 4.59375, 4.5625, 4.5625, 4.5625, 4.5625, 4.5625, 4.53125, 4.53125, 4.53125, 4.53125, 4.53125, 4.5, 4.5, 4.5, 4.5, 4.5, 4.46875, 4.46875, 4.46875, 4.46875, 4.46875, 4.40625, 4.40625, 4.40625, 4.40625, 4.40625, 4.40625, 4.40625, 4.40625, 4.40625, 4.40625, 4.375, 4.375, 4.375, 4.375, 4.375, 4.34375, 4.34375, 4.34375, 4.34375, 4.34375, 4.3125, 4.3125, 4.3125, 4.3125, 4.3125, 4.28125, 4.28125, 4.28125, 4.28125, 4.28125, 4.25, 4.25, 4.25, 4.25, 4.25, 4.25, 4.25, 4.25, 4.25, 4.25, 4.21875, 4.21875, 4.21875, 4.21875, 4.21875, 4.1875, 4.1875, 4.1875, 4.1875, 4.1875, 4.15625, 4.15625, 4.15625, 4.15625, 4.15625, 4.125, 4.125, 4.125, 4.125, 4.125, 4.125, 4.125, 4.125, 4.125, 4.125, 4.125, 4.125, 4.125, 4.125, 4.125, 4.09375, 4.09375, 4.09375, 4.09375, 4.09375, 4.0625, 4.0625, 4.0625, 4.0625, 4.0625, 4.0625, 4.0625, 4.0625, 4.0625, 4.0625, 4.03125, 4.03125, 4.03125, 4.03125, 4.03125, 4.03125, 4.03125, 4.03125, 4.03125, 4.03125, 3.984375, 3.984375, 3.984375, 3.984375, 3.984375, 3.96875, 3.96875, 3.96875, 3.96875, 3.96875, 3.953125, 3.953125, 3.953125, 3.953125, 3.953125, 3.921875, 3.921875, 3.921875, 3.921875, 3.921875, 3.90625, 3.90625, 3.90625, 3.90625, 3.90625, 3.90625, 3.90625, 3.90625, 3.90625, 3.90625, 3.90625, 3.90625, 3.90625, 3.90625, 3.90625, 3.890625, 3.890625, 3.890625, 3.890625, 3.890625, 3.890625, 3.890625, 3.890625, 3.890625, 3.890625, 3.859375, 3.859375, 3.859375, 3.859375, 3.859375, 3.84375, 3.84375, 3.84375, 3.84375, 3.84375, 3.8125, 3.8125, 3.8125, 3.8125, 3.8125, 3.828125, 3.828125, 3.828125, 3.828125, 3.828125, 3.765625, 3.765625, 3.765625, 3.765625, 3.765625, 3.78125, 3.78125, 3.78125, 3.78125, 3.78125, 3.75, 3.75, 3.75, 3.75, 3.75, 3.78125, 3.78125, 3.78125, 3.78125, 3.78125, 3.75, 3.75, 3.75, 3.75, 3.75, 3.765625, 3.765625, 3.765625, 3.765625, 3.765625, 3.734375, 3.734375, 3.734375, 3.734375, 3.734375, 3.734375, 3.734375, 3.734375, 3.734375, 3.734375]","[38657.38671875, 38657.38671875, 38657.38671875, 38657.38671875, 38657.38671875, 457.1429138183594, 457.1429138183594, 457.1429138183594, 457.1429138183594, 457.1429138183594, 314.1894836425781, 314.1894836425781, 314.1894836425781, 314.1894836425781, 314.1894836425781, 222.79376220703125, 222.79376220703125, 222.79376220703125, 222.79376220703125, 222.79376220703125, 184.70252990722656, 184.70252990722656, 184.70252990722656, 184.70252990722656, 184.70252990722656, 162.9994354248047, 162.9994354248047, 162.9994354248047, 162.9994354248047, 162.9994354248047, 153.12380981445312, 153.12380981445312, 153.12380981445312, 153.12380981445312, 153.12380981445312, 139.4208221435547, 139.4208221435547, 139.4208221435547, 139.4208221435547, 139.4208221435547, 126.94410705566406, 126.94410705566406, 126.94410705566406, 126.94410705566406, 126.94410705566406, 123.0384521484375, 123.0384521484375, 123.0384521484375, 123.0384521484375, 123.0384521484375, 115.58393096923828, 115.58393096923828, 115.58393096923828, 115.58393096923828, 115.58393096923828, 112.02778625488281, 112.02778625488281, 112.02778625488281, 112.02778625488281, 112.02778625488281, 108.58106231689453, 108.58106231689453, 108.58106231689453, 108.58106231689453, 108.58106231689453, 105.24037170410156, 105.24037170410156, 105.24037170410156, 105.24037170410156, 105.24037170410156, 98.86418151855469, 98.86418151855469, 98.86418151855469, 98.86418151855469, 98.86418151855469, 98.86418151855469, 98.86418151855469, 98.86418151855469, 98.86418151855469, 98.86418151855469, 95.82245635986328, 95.82245635986328, 95.82245635986328, 95.82245635986328, 95.82245635986328, 92.87431335449219, 92.87431335449219, 92.87431335449219, 92.87431335449219, 92.87431335449219, 90.0168685913086, 90.0168685913086, 90.0168685913086, 90.0168685913086, 90.0168685913086, 87.24734497070312, 87.24734497070312, 87.24734497070312, 87.24734497070312, 87.24734497070312, 81.96129608154297, 81.96129608154297, 81.96129608154297, 81.96129608154297, 81.96129608154297, 81.96129608154297, 81.96129608154297, 81.96129608154297, 81.96129608154297, 81.96129608154297, 79.43961334228516, 79.43961334228516, 79.43961334228516, 79.43961334228516, 79.43961334228516, 76.99551391601562, 76.99551391601562, 76.99551391601562, 76.99551391601562, 76.99551391601562, 74.62661743164062, 74.62661743164062, 74.62661743164062, 74.62661743164062, 74.62661743164062, 72.33059692382812, 72.33059692382812, 72.33059692382812, 72.33059692382812, 72.33059692382812, 70.10521697998047, 70.10521697998047, 70.10521697998047, 70.10521697998047, 70.10521697998047, 70.10521697998047, 70.10521697998047, 70.10521697998047, 70.10521697998047, 70.10521697998047, 67.94831085205078, 67.94831085205078, 67.94831085205078, 67.94831085205078, 67.94831085205078, 65.8577651977539, 65.8577651977539, 65.8577651977539, 65.8577651977539, 65.8577651977539, 63.8315315246582, 63.8315315246582, 63.8315315246582, 63.8315315246582, 63.8315315246582, 61.867645263671875, 61.867645263671875, 61.867645263671875, 61.867645263671875, 61.867645263671875, 61.867645263671875, 61.867645263671875, 61.867645263671875, 61.867645263671875, 61.867645263671875, 61.867645263671875, 61.867645263671875, 61.867645263671875, 61.867645263671875, 61.867645263671875, 59.96417999267578, 59.96417999267578, 59.96417999267578, 59.96417999267578, 59.96417999267578, 58.1192741394043, 58.1192741394043, 58.1192741394043, 58.1192741394043, 58.1192741394043, 58.1192741394043, 58.1192741394043, 58.1192741394043, 58.1192741394043, 58.1192741394043, 56.33113479614258, 56.33113479614258, 56.33113479614258, 56.33113479614258, 56.33113479614258, 56.33113479614258, 56.33113479614258, 56.33113479614258, 56.33113479614258, 56.33113479614258, 53.751548767089844, 53.751548767089844, 53.751548767089844, 53.751548767089844, 53.751548767089844, 52.91820526123047, 52.91820526123047, 52.91820526123047, 52.91820526123047, 52.91820526123047, 52.09778594970703, 52.09778594970703, 52.09778594970703, 52.09778594970703, 52.09778594970703, 50.49490737915039, 50.49490737915039, 50.49490737915039, 50.49490737915039, 50.49490737915039, 49.71205520629883, 49.71205520629883, 49.71205520629883, 49.71205520629883, 49.71205520629883, 49.71205520629883, 49.71205520629883, 49.71205520629883, 49.71205520629883, 49.71205520629883, 49.71205520629883, 49.71205520629883, 49.71205520629883, 49.71205520629883, 49.71205520629883, 48.941341400146484, 48.941341400146484, 48.941341400146484, 48.941341400146484, 48.941341400146484, 48.941341400146484, 48.941341400146484, 48.941341400146484, 48.941341400146484, 48.941341400146484, 47.435577392578125, 47.435577392578125, 47.435577392578125, 47.435577392578125, 47.435577392578125, 46.700157165527344, 46.700157165527344, 46.700157165527344, 46.700157165527344, 46.700157165527344, 45.263343811035156, 45.263343811035156, 45.263343811035156, 45.263343811035156, 45.263343811035156, 45.976139068603516, 45.976139068603516, 45.976139068603516, 45.976139068603516, 45.976139068603516, 43.19058609008789, 43.19058609008789, 43.19058609008789, 43.19058609008789, 43.19058609008789, 43.8707389831543, 43.8707389831543, 43.8707389831543, 43.8707389831543, 43.8707389831543, 42.52098083496094, 42.52098083496094, 42.52098083496094, 42.52098083496094, 42.52098083496094, 43.8707389831543, 43.8707389831543, 43.8707389831543, 43.8707389831543, 43.8707389831543, 42.52098083496094, 42.52098083496094, 42.52098083496094, 42.52098083496094, 42.52098083496094, 43.19058609008789, 43.19058609008789, 43.19058609008789, 43.19058609008789, 43.19058609008789, 41.861751556396484, 41.861751556396484, 41.861751556396484, 41.861751556396484, 41.861751556396484, 41.861751556396484, 41.861751556396484, 41.861751556396484, 41.861751556396484, 41.861751556396484]","[0.030879970639944077, 0.030879970639944077, 0.030879970639944077, 0.030879970639944077, 0.030879970639944077, 0.1701420396566391, 0.1701420396566391, 0.1701420396566391, 0.1701420396566391, 0.1701420396566391, 0.18338416516780853, 0.18338416516780853, 0.18338416516780853, 0.18338416516780853, 0.18338416516780853, 0.2038792371749878, 0.2038792371749878, 0.2038792371749878, 0.2038792371749878, 0.2038792371749878, 0.21289047598838806, 0.21289047598838806, 0.21289047598838806, 0.21289047598838806, 0.21289047598838806, 0.21706640720367432, 0.21706640720367432, 0.21706640720367432, 0.21706640720367432, 0.21706640720367432, 0.2253083884716034, 0.2253083884716034, 0.2253083884716034, 0.2253083884716034, 0.2253083884716034, 0.2302810549736023, 0.2302810549736023, 0.2302810549736023, 0.2302810549736023, 0.2302810549736023, 0.23519878089427948, 0.23519878089427948, 0.23519878089427948, 0.23519878089427948, 0.23519878089427948, 0.2396494448184967, 0.2396494448184967, 0.2396494448184967, 0.2396494448184967, 0.2396494448184967, 0.24091321229934692, 0.24091321229934692, 0.24091321229934692, 0.24091321229934692, 0.24091321229934692, 0.24695734679698944, 0.24695734679698944, 0.24695734679698944, 0.24695734679698944, 0.24695734679698944, 0.24753427505493164, 0.24753427505493164, 0.24753427505493164, 0.24753427505493164, 0.24753427505493164, 0.25033655762672424, 0.25033655762672424, 0.25033655762672424, 0.25033655762672424, 0.25033655762672424, 0.25607848167419434, 0.25607848167419434, 0.25607848167419434, 0.25607848167419434, 0.25607848167419434, 0.2538806200027466, 0.2538806200027466, 0.2538806200027466, 0.2538806200027466, 0.2538806200027466, 0.2589631676673889, 0.2589631676673889, 0.2589631676673889, 0.2589631676673889, 0.2589631676673889, 0.25937527418136597, 0.25937527418136597, 0.25937527418136597, 0.25937527418136597, 0.25937527418136597, 0.26418307423591614, 0.26418307423591614, 0.26418307423591614, 0.26418307423591614, 0.26418307423591614, 0.2681117653846741, 0.2681117653846741, 0.2681117653846741, 0.2681117653846741, 0.2681117653846741, 0.2714085578918457, 0.2714085578918457, 0.2714085578918457, 0.2714085578918457, 0.2714085578918457, 0.27302947640419006, 0.27302947640419006, 0.27302947640419006, 0.27302947640419006, 0.27302947640419006, 0.2746503949165344, 0.2746503949165344, 0.2746503949165344, 0.2746503949165344, 0.2746503949165344, 0.2777823507785797, 0.2777823507785797, 0.2777823507785797, 0.2777823507785797, 0.2777823507785797, 0.2823154628276825, 0.2823154628276825, 0.2823154628276825, 0.2823154628276825, 0.2823154628276825, 0.28393638134002686, 0.28393638134002686, 0.28393638134002686, 0.28393638134002686, 0.28393638134002686, 0.2841561734676361, 0.2841561734676361, 0.2841561734676361, 0.2841561734676361, 0.2841561734676361, 0.28541994094848633, 0.28541994094848633, 0.28541994094848633, 0.28541994094848633, 0.28541994094848633, 0.2883595824241638, 0.2883595824241638, 0.2883595824241638, 0.2883595824241638, 0.2883595824241638, 0.2907222807407379, 0.2907222807407379, 0.2907222807407379, 0.2907222807407379, 0.2907222807407379, 0.29281026124954224, 0.29281026124954224, 0.29281026124954224, 0.29281026124954224, 0.29281026124954224, 0.2960246205329895, 0.2960246205329895, 0.2960246205329895, 0.2960246205329895, 0.2960246205329895, 0.29981592297554016, 0.29981592297554016, 0.29981592297554016, 0.29981592297554016, 0.29981592297554016, 0.2971235513687134, 0.2971235513687134, 0.2971235513687134, 0.2971235513687134, 0.2971235513687134, 0.30270063877105713, 0.30270063877105713, 0.30270063877105713, 0.30270063877105713, 0.30270063877105713, 0.3040468096733093, 0.3040468096733093, 0.3040468096733093, 0.3040468096733093, 0.3040468096733093, 0.30561280250549316, 0.30561280250549316, 0.30561280250549316, 0.30561280250549316, 0.30561280250549316, 0.30739855766296387, 0.30739855766296387, 0.30739855766296387, 0.30739855766296387, 0.30739855766296387, 0.3090469539165497, 0.3090469539165497, 0.3090469539165497, 0.3090469539165497, 0.3090469539165497, 0.31193163990974426, 0.31193163990974426, 0.31193163990974426, 0.31193163990974426, 0.31193163990974426, 0.31467899680137634, 0.31467899680137634, 0.31467899680137634, 0.31467899680137634, 0.31467899680137634, 0.31632739305496216, 0.31632739305496216, 0.31632739305496216, 0.31632739305496216, 0.31632739305496216, 0.31816810369491577, 0.31816810369491577, 0.31816810369491577, 0.31816810369491577, 0.31816810369491577, 0.32072311639785767, 0.32072311639785767, 0.32072311639785767, 0.32072311639785767, 0.32072311639785767, 0.32072311639785767, 0.32072311639785767, 0.32072311639785767, 0.32072311639785767, 0.32072311639785767, 0.31989890336990356, 0.31989890336990356, 0.31989890336990356, 0.31989890336990356, 0.31989890336990356, 0.32239896059036255, 0.32239896059036255, 0.32239896059036255, 0.32239896059036255, 0.32239896059036255, 0.32110774517059326, 0.32110774517059326, 0.32110774517059326, 0.32110774517059326, 0.32110774517059326, 0.32533860206604004, 0.32533860206604004, 0.32533860206604004, 0.32533860206604004, 0.32533860206604004, 0.3266298472881317, 0.3266298472881317, 0.3266298472881317, 0.3266298472881317, 0.3266298472881317, 0.33050358295440674, 0.33050358295440674, 0.33050358295440674, 0.33050358295440674, 0.33050358295440674, 0.3301464319229126, 0.3301464319229126, 0.3301464319229126, 0.3301464319229126, 0.3301464319229126, 0.3349817395210266, 0.3349817395210266, 0.3349817395210266, 0.3349817395210266, 0.3349817395210266, 0.33283883333206177, 0.33283883333206177, 0.33283883333206177, 0.33283883333206177, 0.33283883333206177, 0.3369048535823822, 0.3369048535823822, 0.3369048535823822, 0.3369048535823822, 0.3369048535823822, 0.33201462030410767, 0.33201462030410767, 0.33201462030410767, 0.33201462030410767, 0.33201462030410767, 0.3359982371330261, 0.3359982371330261, 0.3359982371330261, 0.3359982371330261, 0.3359982371330261, 0.33393776416778564, 0.33393776416778564, 0.33393776416778564, 0.33393776416778564, 0.33393776416778564, 0.33717960119247437, 0.33717960119247437, 0.33717960119247437, 0.33717960119247437, 0.33717960119247437, 0.3357509970664978, 0.3357509970664978, 0.3357509970664978, 0.3357509970664978, 0.3357509970664978]","[10.4375, 10.4375, 10.4375, 10.4375, 10.4375, 6.28125, 6.28125, 6.28125, 6.28125, 6.28125, 5.9375, 5.9375, 5.9375, 5.9375, 5.9375, 5.59375, 5.59375, 5.59375, 5.59375, 5.59375, 5.4375, 5.4375, 5.4375, 5.4375, 5.4375, 5.3125, 5.3125, 5.3125, 5.3125, 5.3125, 5.25, 5.25, 5.25, 5.25, 5.25, 5.15625, 5.15625, 5.15625, 5.15625, 5.15625, 5.09375, 5.09375, 5.09375, 5.09375, 5.09375, 5.03125, 5.03125, 5.03125, 5.03125, 5.03125, 5.0, 5.0, 5.0, 5.0, 5.0, 4.96875, 4.96875, 4.96875, 4.96875, 4.96875, 4.9375, 4.9375, 4.9375, 4.9375, 4.9375, 4.90625, 4.90625, 4.90625, 4.90625, 4.90625, 4.84375, 4.84375, 4.84375, 4.84375, 4.84375, 4.84375, 4.84375, 4.84375, 4.84375, 4.84375, 4.8125, 4.8125, 4.8125, 4.8125, 4.8125, 4.8125, 4.8125, 4.8125, 4.8125, 4.8125, 4.75, 4.75, 4.75, 4.75, 4.75, 4.75, 4.75, 4.75, 4.75, 4.75, 4.6875, 4.6875, 4.6875, 4.6875, 4.6875, 4.6875, 4.6875, 4.6875, 4.6875, 4.6875, 4.65625, 4.65625, 4.65625, 4.65625, 4.65625, 4.625, 4.625, 4.625, 4.625, 4.625, 4.59375, 4.59375, 4.59375, 4.59375, 4.59375, 4.5625, 4.5625, 4.5625, 4.5625, 4.5625, 4.5625, 4.5625, 4.5625, 4.5625, 4.5625, 4.53125, 4.53125, 4.53125, 4.53125, 4.53125, 4.53125, 4.53125, 4.53125, 4.53125, 4.53125, 4.5, 4.5, 4.5, 4.5, 4.5, 4.46875, 4.46875, 4.46875, 4.46875, 4.46875, 4.46875, 4.46875, 4.46875, 4.46875, 4.46875, 4.4375, 4.4375, 4.4375, 4.4375, 4.4375, 4.4375, 4.4375, 4.4375, 4.4375, 4.4375, 4.40625, 4.40625, 4.40625, 4.40625, 4.40625, 4.40625, 4.40625, 4.40625, 4.40625, 4.40625, 4.40625, 4.40625, 4.40625, 4.40625, 4.40625, 4.375, 4.375, 4.375, 4.375, 4.375, 4.375, 4.375, 4.375, 4.375, 4.375, 4.34375, 4.34375, 4.34375, 4.34375, 4.34375, 4.28125, 4.28125, 4.28125, 4.28125, 4.28125, 4.25, 4.25, 4.25, 4.25, 4.25, 4.25, 4.25, 4.25, 4.25, 4.25, 4.25, 4.25, 4.25, 4.25, 4.25, 4.25, 4.25, 4.25, 4.25, 4.25, 4.25, 4.25, 4.25, 4.25, 4.25, 4.21875, 4.21875, 4.21875, 4.21875, 4.21875, 4.21875, 4.21875, 4.21875, 4.21875, 4.21875, 4.1875, 4.1875, 4.1875, 4.1875, 4.1875, 4.1875, 4.1875, 4.1875, 4.1875, 4.1875, 4.15625, 4.15625, 4.15625, 4.15625, 4.15625, 4.125, 4.125, 4.125, 4.125, 4.125, 4.0625, 4.0625, 4.0625, 4.0625, 4.0625, 4.09375, 4.09375, 4.09375, 4.09375, 4.09375, 4.0625, 4.0625, 4.0625, 4.0625, 4.0625, 4.09375, 4.09375, 4.09375, 4.09375, 4.09375, 4.0625, 4.0625, 4.0625, 4.0625, 4.0625, 4.0625, 4.0625, 4.0625, 4.0625, 4.0625, 4.03125, 4.03125, 4.03125, 4.03125, 4.03125, 4.0625, 4.0625, 4.0625, 4.0625, 4.0625]","[34115.02734375, 34115.02734375, 34115.02734375, 34115.02734375, 34115.02734375, 534.4541625976562, 534.4541625976562, 534.4541625976562, 534.4541625976562, 534.4541625976562, 378.9848327636719, 378.9848327636719, 378.9848327636719, 378.9848327636719, 378.9848327636719, 268.74053955078125, 268.74053955078125, 268.74053955078125, 268.74053955078125, 268.74053955078125, 229.86599731445312, 229.86599731445312, 229.86599731445312, 229.86599731445312, 229.86599731445312, 202.8560333251953, 202.8560333251953, 202.8560333251953, 202.8560333251953, 202.8560333251953, 190.5656280517578, 190.5656280517578, 190.5656280517578, 190.5656280517578, 190.5656280517578, 173.51197814941406, 173.51197814941406, 173.51197814941406, 173.51197814941406, 173.51197814941406, 162.9994354248047, 162.9994354248047, 162.9994354248047, 162.9994354248047, 162.9994354248047, 153.12380981445312, 153.12380981445312, 153.12380981445312, 153.12380981445312, 153.12380981445312, 148.4126739501953, 148.4126739501953, 148.4126739501953, 148.4126739501953, 148.4126739501953, 143.8465118408203, 143.8465118408203, 143.8465118408203, 143.8465118408203, 143.8465118408203, 139.4208221435547, 139.4208221435547, 139.4208221435547, 139.4208221435547, 139.4208221435547, 135.13128662109375, 135.13128662109375, 135.13128662109375, 135.13128662109375, 135.13128662109375, 126.94410705566406, 126.94410705566406, 126.94410705566406, 126.94410705566406, 126.94410705566406, 126.94410705566406, 126.94410705566406, 126.94410705566406, 126.94410705566406, 126.94410705566406, 123.0384521484375, 123.0384521484375, 123.0384521484375, 123.0384521484375, 123.0384521484375, 123.0384521484375, 123.0384521484375, 123.0384521484375, 123.0384521484375, 123.0384521484375, 115.58393096923828, 115.58393096923828, 115.58393096923828, 115.58393096923828, 115.58393096923828, 115.58393096923828, 115.58393096923828, 115.58393096923828, 115.58393096923828, 115.58393096923828, 108.58106231689453, 108.58106231689453, 108.58106231689453, 108.58106231689453, 108.58106231689453, 108.58106231689453, 108.58106231689453, 108.58106231689453, 108.58106231689453, 108.58106231689453, 105.24037170410156, 105.24037170410156, 105.24037170410156, 105.24037170410156, 105.24037170410156, 102.0024642944336, 102.0024642944336, 102.0024642944336, 102.0024642944336, 102.0024642944336, 98.86418151855469, 98.86418151855469, 98.86418151855469, 98.86418151855469, 98.86418151855469, 95.82245635986328, 95.82245635986328, 95.82245635986328, 95.82245635986328, 95.82245635986328, 95.82245635986328, 95.82245635986328, 95.82245635986328, 95.82245635986328, 95.82245635986328, 92.87431335449219, 92.87431335449219, 92.87431335449219, 92.87431335449219, 92.87431335449219, 92.87431335449219, 92.87431335449219, 92.87431335449219, 92.87431335449219, 92.87431335449219, 90.0168685913086, 90.0168685913086, 90.0168685913086, 90.0168685913086, 90.0168685913086, 87.24734497070312, 87.24734497070312, 87.24734497070312, 87.24734497070312, 87.24734497070312, 87.24734497070312, 87.24734497070312, 87.24734497070312, 87.24734497070312, 87.24734497070312, 84.56302642822266, 84.56302642822266, 84.56302642822266, 84.56302642822266, 84.56302642822266, 84.56302642822266, 84.56302642822266, 84.56302642822266, 84.56302642822266, 84.56302642822266, 81.96129608154297, 81.96129608154297, 81.96129608154297, 81.96129608154297, 81.96129608154297, 81.96129608154297, 81.96129608154297, 81.96129608154297, 81.96129608154297, 81.96129608154297, 81.96129608154297, 81.96129608154297, 81.96129608154297, 81.96129608154297, 81.96129608154297, 79.43961334228516, 79.43961334228516, 79.43961334228516, 79.43961334228516, 79.43961334228516, 79.43961334228516, 79.43961334228516, 79.43961334228516, 79.43961334228516, 79.43961334228516, 76.99551391601562, 76.99551391601562, 76.99551391601562, 76.99551391601562, 76.99551391601562, 72.33059692382812, 72.33059692382812, 72.33059692382812, 72.33059692382812, 72.33059692382812, 70.10521697998047, 70.10521697998047, 70.10521697998047, 70.10521697998047, 70.10521697998047, 70.10521697998047, 70.10521697998047, 70.10521697998047, 70.10521697998047, 70.10521697998047, 70.10521697998047, 70.10521697998047, 70.10521697998047, 70.10521697998047, 70.10521697998047, 70.10521697998047, 70.10521697998047, 70.10521697998047, 70.10521697998047, 70.10521697998047, 70.10521697998047, 70.10521697998047, 70.10521697998047, 70.10521697998047, 70.10521697998047, 67.94831085205078, 67.94831085205078, 67.94831085205078, 67.94831085205078, 67.94831085205078, 67.94831085205078, 67.94831085205078, 67.94831085205078, 67.94831085205078, 67.94831085205078, 65.8577651977539, 65.8577651977539, 65.8577651977539, 65.8577651977539, 65.8577651977539, 65.8577651977539, 65.8577651977539, 65.8577651977539, 65.8577651977539, 65.8577651977539, 63.8315315246582, 63.8315315246582, 63.8315315246582, 63.8315315246582, 63.8315315246582, 61.867645263671875, 61.867645263671875, 61.867645263671875, 61.867645263671875, 61.867645263671875, 58.1192741394043, 58.1192741394043, 58.1192741394043, 58.1192741394043, 58.1192741394043, 59.96417999267578, 59.96417999267578, 59.96417999267578, 59.96417999267578, 59.96417999267578, 58.1192741394043, 58.1192741394043, 58.1192741394043, 58.1192741394043, 58.1192741394043, 59.96417999267578, 59.96417999267578, 59.96417999267578, 59.96417999267578, 59.96417999267578, 58.1192741394043, 58.1192741394043, 58.1192741394043, 58.1192741394043, 58.1192741394043, 58.1192741394043, 58.1192741394043, 58.1192741394043, 58.1192741394043, 58.1192741394043, 56.33113479614258, 56.33113479614258, 56.33113479614258, 56.33113479614258, 56.33113479614258, 58.1192741394043, 58.1192741394043, 58.1192741394043, 58.1192741394043, 58.1192741394043]","[10.4375, 10.4375, 10.4375, 10.4375, 10.4375, 6.34375, 6.34375, 6.34375, 6.34375, 6.34375, 6.0, 6.0, 6.0, 6.0, 6.0, 5.65625, 5.65625, 5.65625, 5.65625, 5.65625, 5.5, 5.5, 5.5, 5.5, 5.5, 5.40625, 5.40625, 5.40625, 5.40625, 5.40625, 5.3125, 5.3125, 5.3125, 5.3125, 5.3125, 5.25, 5.25, 5.25, 5.25, 5.25, 5.15625, 5.15625, 5.15625, 5.15625, 5.15625, 5.125, 5.125, 5.125, 5.125, 5.125, 5.09375, 5.09375, 5.09375, 5.09375, 5.09375, 5.0625, 5.0625, 5.0625, 5.0625, 5.0625, 5.03125, 5.03125, 5.03125, 5.03125, 5.03125, 4.96875, 4.96875, 4.96875, 4.96875, 4.96875, 4.9375, 4.9375, 4.9375, 4.9375, 4.9375, 4.9375, 4.9375, 4.9375, 4.9375, 4.9375, 4.90625, 4.90625, 4.90625, 4.90625, 4.90625, 4.875, 4.875, 4.875, 4.875, 4.875, 4.84375, 4.84375, 4.84375, 4.84375, 4.84375, 4.8125, 4.8125, 4.8125, 4.8125, 4.8125, 4.75, 4.75, 4.75, 4.75, 4.75, 4.78125, 4.78125, 4.78125, 4.78125, 4.78125, 4.75, 4.75, 4.75, 4.75, 4.75, 4.71875, 4.71875, 4.71875, 4.71875, 4.71875, 4.6875, 4.6875, 4.6875, 4.6875, 4.6875, 4.65625, 4.65625, 4.65625, 4.65625, 4.65625, 4.625, 4.625, 4.625, 4.625, 4.625, 4.625, 4.625, 4.625, 4.625, 4.625, 4.59375, 4.59375, 4.59375, 4.59375, 4.59375, 4.5625, 4.5625, 4.5625, 4.5625, 4.5625, 4.5625, 4.5625, 4.5625, 4.5625, 4.5625, 4.53125, 4.53125, 4.53125, 4.53125, 4.53125, 4.5, 4.5, 4.5, 4.5, 4.5, 4.5, 4.5, 4.5, 4.5, 4.5, 4.46875, 4.46875, 4.46875, 4.46875, 4.46875, 4.46875, 4.46875, 4.46875, 4.46875, 4.46875, 4.4375, 4.4375, 4.4375, 4.4375, 4.4375, 4.40625, 4.40625, 4.40625, 4.40625, 4.40625, 4.4375, 4.4375, 4.4375, 4.4375, 4.4375, 4.40625, 4.40625, 4.40625, 4.40625, 4.40625, 4.375, 4.375, 4.375, 4.375, 4.375, 4.34375, 4.34375, 4.34375, 4.34375, 4.34375, 4.34375, 4.34375, 4.34375, 4.34375, 4.34375, 4.34375, 4.34375, 4.34375, 4.34375, 4.34375, 4.3125, 4.3125, 4.3125, 4.3125, 4.3125, 4.3125, 4.3125, 4.3125, 4.3125, 4.3125, 4.3125, 4.3125, 4.3125, 4.3125, 4.3125, 4.3125, 4.3125, 4.3125, 4.3125, 4.3125, 4.28125, 4.28125, 4.28125, 4.28125, 4.28125, 4.25, 4.25, 4.25, 4.25, 4.25, 4.21875, 4.21875, 4.21875, 4.21875, 4.21875, 4.25, 4.25, 4.25, 4.25, 4.25, 4.1875, 4.1875, 4.1875, 4.1875, 4.1875, 4.1875, 4.1875, 4.1875, 4.1875, 4.1875, 4.15625, 4.15625, 4.15625, 4.15625, 4.15625, 4.21875, 4.21875, 4.21875, 4.21875, 4.21875, 4.15625, 4.15625, 4.15625, 4.15625, 4.15625, 4.1875, 4.1875, 4.1875, 4.1875, 4.1875, 4.15625, 4.15625, 4.15625, 4.15625, 4.15625, 4.15625, 4.15625, 4.15625, 4.15625, 4.15625]","[34115.02734375, 34115.02734375, 34115.02734375, 34115.02734375, 34115.02734375, 568.9234619140625, 568.9234619140625, 568.9234619140625, 568.9234619140625, 568.9234619140625, 403.42724609375, 403.42724609375, 403.42724609375, 403.42724609375, 403.42724609375, 286.07281494140625, 286.07281494140625, 286.07281494140625, 286.07281494140625, 286.07281494140625, 244.69107055664062, 244.69107055664062, 244.69107055664062, 244.69107055664062, 244.69107055664062, 222.79376220703125, 222.79376220703125, 222.79376220703125, 222.79376220703125, 222.79376220703125, 202.8560333251953, 202.8560333251953, 202.8560333251953, 202.8560333251953, 202.8560333251953, 190.5656280517578, 190.5656280517578, 190.5656280517578, 190.5656280517578, 190.5656280517578, 173.51197814941406, 173.51197814941406, 173.51197814941406, 173.51197814941406, 173.51197814941406, 168.173583984375, 168.173583984375, 168.173583984375, 168.173583984375, 168.173583984375, 162.9994354248047, 162.9994354248047, 162.9994354248047, 162.9994354248047, 162.9994354248047, 157.98446655273438, 157.98446655273438, 157.98446655273438, 157.98446655273438, 157.98446655273438, 153.12380981445312, 153.12380981445312, 153.12380981445312, 153.12380981445312, 153.12380981445312, 143.8465118408203, 143.8465118408203, 143.8465118408203, 143.8465118408203, 143.8465118408203, 139.4208221435547, 139.4208221435547, 139.4208221435547, 139.4208221435547, 139.4208221435547, 139.4208221435547, 139.4208221435547, 139.4208221435547, 139.4208221435547, 139.4208221435547, 135.13128662109375, 135.13128662109375, 135.13128662109375, 135.13128662109375, 135.13128662109375, 130.97373962402344, 130.97373962402344, 130.97373962402344, 130.97373962402344, 130.97373962402344, 126.94410705566406, 126.94410705566406, 126.94410705566406, 126.94410705566406, 126.94410705566406, 123.0384521484375, 123.0384521484375, 123.0384521484375, 123.0384521484375, 123.0384521484375, 115.58393096923828, 115.58393096923828, 115.58393096923828, 115.58393096923828, 115.58393096923828, 119.2529525756836, 119.2529525756836, 119.2529525756836, 119.2529525756836, 119.2529525756836, 115.58393096923828, 115.58393096923828, 115.58393096923828, 115.58393096923828, 115.58393096923828, 112.02778625488281, 112.02778625488281, 112.02778625488281, 112.02778625488281, 112.02778625488281, 108.58106231689453, 108.58106231689453, 108.58106231689453, 108.58106231689453, 108.58106231689453, 105.24037170410156, 105.24037170410156, 105.24037170410156, 105.24037170410156, 105.24037170410156, 102.0024642944336, 102.0024642944336, 102.0024642944336, 102.0024642944336, 102.0024642944336, 102.0024642944336, 102.0024642944336, 102.0024642944336, 102.0024642944336, 102.0024642944336, 98.86418151855469, 98.86418151855469, 98.86418151855469, 98.86418151855469, 98.86418151855469, 95.82245635986328, 95.82245635986328, 95.82245635986328, 95.82245635986328, 95.82245635986328, 95.82245635986328, 95.82245635986328, 95.82245635986328, 95.82245635986328, 95.82245635986328, 92.87431335449219, 92.87431335449219, 92.87431335449219, 92.87431335449219, 92.87431335449219, 90.0168685913086, 90.0168685913086, 90.0168685913086, 90.0168685913086, 90.0168685913086, 90.0168685913086, 90.0168685913086, 90.0168685913086, 90.0168685913086, 90.0168685913086, 87.24734497070312, 87.24734497070312, 87.24734497070312, 87.24734497070312, 87.24734497070312, 87.24734497070312, 87.24734497070312, 87.24734497070312, 87.24734497070312, 87.24734497070312, 84.56302642822266, 84.56302642822266, 84.56302642822266, 84.56302642822266, 84.56302642822266, 81.96129608154297, 81.96129608154297, 81.96129608154297, 81.96129608154297, 81.96129608154297, 84.56302642822266, 84.56302642822266, 84.56302642822266, 84.56302642822266, 84.56302642822266, 81.96129608154297, 81.96129608154297, 81.96129608154297, 81.96129608154297, 81.96129608154297, 79.43961334228516, 79.43961334228516, 79.43961334228516, 79.43961334228516, 79.43961334228516, 76.99551391601562, 76.99551391601562, 76.99551391601562, 76.99551391601562, 76.99551391601562, 76.99551391601562, 76.99551391601562, 76.99551391601562, 76.99551391601562, 76.99551391601562, 76.99551391601562, 76.99551391601562, 76.99551391601562, 76.99551391601562, 76.99551391601562, 74.62661743164062, 74.62661743164062, 74.62661743164062, 74.62661743164062, 74.62661743164062, 74.62661743164062, 74.62661743164062, 74.62661743164062, 74.62661743164062, 74.62661743164062, 74.62661743164062, 74.62661743164062, 74.62661743164062, 74.62661743164062, 74.62661743164062, 74.62661743164062, 74.62661743164062, 74.62661743164062, 74.62661743164062, 74.62661743164062, 72.33059692382812, 72.33059692382812, 72.33059692382812, 72.33059692382812, 72.33059692382812, 70.10521697998047, 70.10521697998047, 70.10521697998047, 70.10521697998047, 70.10521697998047, 67.94831085205078, 67.94831085205078, 67.94831085205078, 67.94831085205078, 67.94831085205078, 70.10521697998047, 70.10521697998047, 70.10521697998047, 70.10521697998047, 70.10521697998047, 65.8577651977539, 65.8577651977539, 65.8577651977539, 65.8577651977539, 65.8577651977539, 65.8577651977539, 65.8577651977539, 65.8577651977539, 65.8577651977539, 65.8577651977539, 63.8315315246582, 63.8315315246582, 63.8315315246582, 63.8315315246582, 63.8315315246582, 67.94831085205078, 67.94831085205078, 67.94831085205078, 67.94831085205078, 67.94831085205078, 63.8315315246582, 63.8315315246582, 63.8315315246582, 63.8315315246582, 63.8315315246582, 65.8577651977539, 65.8577651977539, 65.8577651977539, 65.8577651977539, 65.8577651977539, 63.8315315246582, 63.8315315246582, 63.8315315246582, 63.8315315246582, 63.8315315246582, 63.8315315246582, 63.8315315246582, 63.8315315246582, 63.8315315246582, 63.8315315246582]","[10.1875, 10.1875, 10.1875, 10.1875, 10.1875, 6.75, 6.75, 6.75, 6.75, 6.75, 6.46875, 6.46875, 6.46875, 6.46875, 6.46875, 6.1875, 6.1875, 6.1875, 6.1875, 6.1875, 6.0625, 6.0625, 6.0625, 6.0625, 6.0625, 5.96875, 5.96875, 5.96875, 5.96875, 5.96875, 5.9375, 5.9375, 5.9375, 5.9375, 5.9375, 5.84375, 5.84375, 5.84375, 5.84375, 5.84375, 5.8125, 5.8125, 5.8125, 5.8125, 5.8125, 5.75, 5.75, 5.75, 5.75, 5.75, 5.75, 5.75, 5.75, 5.75, 5.75, 5.6875, 5.6875, 5.6875, 5.6875, 5.6875, 5.6875, 5.6875, 5.6875, 5.6875, 5.6875, 5.65625, 5.65625, 5.65625, 5.65625, 5.65625, 5.625, 5.625, 5.625, 5.625, 5.625, 5.59375, 5.59375, 5.59375, 5.59375, 5.59375, 5.59375, 5.59375, 5.59375, 5.59375, 5.59375, 5.5625, 5.5625, 5.5625, 5.5625, 5.5625, 5.5625, 5.5625, 5.5625, 5.5625, 5.5625, 5.5, 5.5, 5.5, 5.5, 5.5, 5.46875, 5.46875, 5.46875, 5.46875, 5.46875, 5.46875, 5.46875, 5.46875, 5.46875, 5.46875, 5.4375, 5.4375, 5.4375, 5.4375, 5.4375, 5.4375, 5.4375, 5.4375, 5.4375, 5.4375, 5.40625, 5.40625, 5.40625, 5.40625, 5.40625, 5.375, 5.375, 5.375, 5.375, 5.375, 5.375, 5.375, 5.375, 5.375, 5.375, 5.375, 5.375, 5.375, 5.375, 5.375, 5.34375, 5.34375, 5.34375, 5.34375, 5.34375, 5.28125, 5.28125, 5.28125, 5.28125, 5.28125, 5.3125, 5.3125, 5.3125, 5.3125, 5.3125, 5.28125, 5.28125, 5.28125, 5.28125, 5.28125, 5.3125, 5.3125, 5.3125, 5.3125, 5.3125, 5.28125, 5.28125, 5.28125, 5.28125, 5.28125, 5.25, 5.25, 5.25, 5.25, 5.25, 5.25, 5.25, 5.25, 5.25, 5.25, 5.25, 5.25, 5.25, 5.25, 5.25, 5.1875, 5.1875, 5.1875, 5.1875, 5.1875, 5.21875, 5.21875, 5.21875, 5.21875, 5.21875, 5.1875, 5.1875, 5.1875, 5.1875, 5.1875, 5.21875, 5.21875, 5.21875, 5.21875, 5.21875, 5.15625, 5.15625, 5.15625, 5.15625, 5.15625, 5.125, 5.125, 5.125, 5.125, 5.125, 5.15625, 5.15625, 5.15625, 5.15625, 5.15625, 5.125, 5.125, 5.125, 5.125, 5.125, 5.125, 5.125, 5.125, 5.125, 5.125, 5.09375, 5.09375, 5.09375, 5.09375, 5.09375, 5.125, 5.125, 5.125, 5.125, 5.125, 5.0625, 5.0625, 5.0625, 5.0625, 5.0625, 5.0625, 5.0625, 5.0625, 5.0625, 5.0625, 5.0625, 5.0625, 5.0625, 5.0625, 5.0625, 5.0625, 5.0625, 5.0625, 5.0625, 5.0625, 5.03125, 5.03125, 5.03125, 5.03125, 5.03125, 5.0, 5.0, 5.0, 5.0, 5.0, 5.03125, 5.03125, 5.03125, 5.03125, 5.03125, 5.03125, 5.03125, 5.03125, 5.03125, 5.03125, 5.03125, 5.03125, 5.03125, 5.03125, 5.03125, 5.03125, 5.03125, 5.03125, 5.03125, 5.03125, 5.03125, 5.03125, 5.03125, 5.03125, 5.03125, 5.0, 5.0, 5.0, 5.0, 5.0]","[26568.814453125, 26568.814453125, 26568.814453125, 26568.814453125, 26568.814453125, 854.0550537109375, 854.0550537109375, 854.0550537109375, 854.0550537109375, 854.0550537109375, 644.6746826171875, 644.6746826171875, 644.6746826171875, 644.6746826171875, 644.6746826171875, 486.6260681152344, 486.6260681152344, 486.6260681152344, 486.6260681152344, 486.6260681152344, 429.446044921875, 429.446044921875, 429.446044921875, 429.446044921875, 429.446044921875, 391.01507568359375, 391.01507568359375, 391.01507568359375, 391.01507568359375, 391.01507568359375, 378.9848327636719, 378.9848327636719, 378.9848327636719, 378.9848327636719, 378.9848327636719, 345.06964111328125, 345.06964111328125, 345.06964111328125, 345.06964111328125, 345.06964111328125, 334.4529724121094, 334.4529724121094, 334.4529724121094, 334.4529724121094, 334.4529724121094, 314.1894836425781, 314.1894836425781, 314.1894836425781, 314.1894836425781, 314.1894836425781, 314.1894836425781, 314.1894836425781, 314.1894836425781, 314.1894836425781, 314.1894836425781, 295.1537170410156, 295.1537170410156, 295.1537170410156, 295.1537170410156, 295.1537170410156, 295.1537170410156, 295.1537170410156, 295.1537170410156, 295.1537170410156, 295.1537170410156, 286.07281494140625, 286.07281494140625, 286.07281494140625, 286.07281494140625, 286.07281494140625, 277.2712707519531, 277.2712707519531, 277.2712707519531, 277.2712707519531, 277.2712707519531, 268.74053955078125, 268.74053955078125, 268.74053955078125, 268.74053955078125, 268.74053955078125, 268.74053955078125, 268.74053955078125, 268.74053955078125, 268.74053955078125, 268.74053955078125, 260.4722595214844, 260.4722595214844, 260.4722595214844, 260.4722595214844, 260.4722595214844, 260.4722595214844, 260.4722595214844, 260.4722595214844, 260.4722595214844, 260.4722595214844, 244.69107055664062, 244.69107055664062, 244.69107055664062, 244.69107055664062, 244.69107055664062, 237.1627197265625, 237.1627197265625, 237.1627197265625, 237.1627197265625, 237.1627197265625, 237.1627197265625, 237.1627197265625, 237.1627197265625, 237.1627197265625, 237.1627197265625, 229.86599731445312, 229.86599731445312, 229.86599731445312, 229.86599731445312, 229.86599731445312, 229.86599731445312, 229.86599731445312, 229.86599731445312, 229.86599731445312, 229.86599731445312, 222.79376220703125, 222.79376220703125, 222.79376220703125, 222.79376220703125, 222.79376220703125, 215.93911743164062, 215.93911743164062, 215.93911743164062, 215.93911743164062, 215.93911743164062, 215.93911743164062, 215.93911743164062, 215.93911743164062, 215.93911743164062, 215.93911743164062, 215.93911743164062, 215.93911743164062, 215.93911743164062, 215.93911743164062, 215.93911743164062, 209.29537963867188, 209.29537963867188, 209.29537963867188, 209.29537963867188, 209.29537963867188, 196.6148223876953, 196.6148223876953, 196.6148223876953, 196.6148223876953, 196.6148223876953, 202.8560333251953, 202.8560333251953, 202.8560333251953, 202.8560333251953, 202.8560333251953, 196.6148223876953, 196.6148223876953, 196.6148223876953, 196.6148223876953, 196.6148223876953, 202.8560333251953, 202.8560333251953, 202.8560333251953, 202.8560333251953, 202.8560333251953, 196.6148223876953, 196.6148223876953, 196.6148223876953, 196.6148223876953, 196.6148223876953, 190.5656280517578, 190.5656280517578, 190.5656280517578, 190.5656280517578, 190.5656280517578, 190.5656280517578, 190.5656280517578, 190.5656280517578, 190.5656280517578, 190.5656280517578, 190.5656280517578, 190.5656280517578, 190.5656280517578, 190.5656280517578, 190.5656280517578, 179.01983642578125, 179.01983642578125, 179.01983642578125, 179.01983642578125, 179.01983642578125, 184.70252990722656, 184.70252990722656, 184.70252990722656, 184.70252990722656, 184.70252990722656, 179.01983642578125, 179.01983642578125, 179.01983642578125, 179.01983642578125, 179.01983642578125, 184.70252990722656, 184.70252990722656, 184.70252990722656, 184.70252990722656, 184.70252990722656, 173.51197814941406, 173.51197814941406, 173.51197814941406, 173.51197814941406, 173.51197814941406, 168.173583984375, 168.173583984375, 168.173583984375, 168.173583984375, 168.173583984375, 173.51197814941406, 173.51197814941406, 173.51197814941406, 173.51197814941406, 173.51197814941406, 168.173583984375, 168.173583984375, 168.173583984375, 168.173583984375, 168.173583984375, 168.173583984375, 168.173583984375, 168.173583984375, 168.173583984375, 168.173583984375, 162.9994354248047, 162.9994354248047, 162.9994354248047, 162.9994354248047, 162.9994354248047, 168.173583984375, 168.173583984375, 168.173583984375, 168.173583984375, 168.173583984375, 157.98446655273438, 157.98446655273438, 157.98446655273438, 157.98446655273438, 157.98446655273438, 157.98446655273438, 157.98446655273438, 157.98446655273438, 157.98446655273438, 157.98446655273438, 157.98446655273438, 157.98446655273438, 157.98446655273438, 157.98446655273438, 157.98446655273438, 157.98446655273438, 157.98446655273438, 157.98446655273438, 157.98446655273438, 157.98446655273438, 153.12380981445312, 153.12380981445312, 153.12380981445312, 153.12380981445312, 153.12380981445312, 148.4126739501953, 148.4126739501953, 148.4126739501953, 148.4126739501953, 148.4126739501953, 153.12380981445312, 153.12380981445312, 153.12380981445312, 153.12380981445312, 153.12380981445312, 153.12380981445312, 153.12380981445312, 153.12380981445312, 153.12380981445312, 153.12380981445312, 153.12380981445312, 153.12380981445312, 153.12380981445312, 153.12380981445312, 153.12380981445312, 153.12380981445312, 153.12380981445312, 153.12380981445312, 153.12380981445312, 153.12380981445312, 153.12380981445312, 153.12380981445312, 153.12380981445312, 153.12380981445312, 153.12380981445312, 148.4126739501953, 148.4126739501953, 148.4126739501953, 148.4126739501953, 148.4126739501953]","[1.7824038597905905, 0.7739508976756714, 0.36354846531791635, 0.4379531267879355, 0.41341793018942274, 0.316640265485991, 0.37266753667457686, 0.3073039916582086, 0.4241809095000533, 0.39051531607780643, 0.5676309548513805, 0.37141006029093654, 0.3164095020352424, 0.3492299833672303, 0.3489438600765087, 0.30251864896551495, 0.2888070017083112, 0.2682488402167451, 0.307945311384023, 0.27271103169423505, 0.2591690943837813, 0.3037460208566144, 0.3805306739770439, 0.2614601753468558, 0.2655220377009328, 0.2489827695476825, 0.2708660105905703, 0.2606967658996959, 0.27157844636890316, 0.3078114059406892, 0.2517464163885024, 0.24638620059184355, 0.2688267458151479, 0.2806281273704037, 0.25165488196891383, 0.2416069473502041, 0.24535993906595835, 0.2928887714552686, 0.26505225014788, 0.24866810251907498, 0.2501136583819213, 0.2301931558843099, 0.24640372683176906, 0.2417935429377753, 0.2701703164660885, 0.23232820683524272, 0.26890101061102384, 0.26824373842803334, 0.2619761438519057, 0.2354069105016266, 0.2461247685670336, 0.24596738196279277, 0.38583097134047467, 0.23922369233456459, 0.2212717096554603, 0.44989285683653796, 0.23873095696969907, 0.232166189915251, 0.2407007454528814, 0.22699867831270323, 0.22573423800561984, 0.22493345926479774, 0.22590676178491145, 0.23020119076417606, 0.24068964111320815, 0.2621389121074327, 0.29646526579079485, 0.22184463288546585, 0.23838887205061193, 0.25601922058135523, 0.2230799967925794, 0.22589747463871349, 0.2311080178026493, 0.24460904555685387, 0.23515364786599777, 0.24638371642708704, 0.26132902161959537, 0.2212159943106234, 0.29824380969825476, 0.22448250799379002, 0.24760347218537856, 0.2504331724583986, 0.23141293441314326, 0.22796183586423102, 0.25380687878166175, 0.2164983420519752, 0.2748562999046467, 0.22134749085856703, 0.22196652702126582, 0.21183334659351227, 0.2374582760663158, 0.16679243586756015, 0.17379875149237276, 0.22797115268437523, 0.16421410771750705, 0.21757252447763759, 0.1717133097717437, 0.20595961423740095, 0.23908014159834393, 0.18266628811409824, 0.21520356059496837, 0.20872668172634715, 0.2199299034350108, 0.17144195868359055, 0.162614079252258, 0.23844679142162362, 0.3087694158146066, 0.18114857624742664, 0.15930269656005222, 0.19609918532260698, 0.17472331864466345, 0.24183461215392457, 0.1498705704274639, 0.16673222161515733, 0.16672665374310114, 0.17204266491053552, 0.1941176368798701, 0.17895976878847025, 0.18624084634839358, 0.1887391107637358, 0.21730997823295337, 0.17062350711526178, 0.2244397830551647, 0.1754457455838258, 0.16655761784598008, 0.16445629986526544, 0.17715804127792817, 0.16858616253648734, 0.2144230834590482, 0.20951858374926557, 0.16296325962081978, 0.18860810450500548, 0.17018793337263077, 0.17796537803930193, 0.1620180313617051, 0.17865541732754747, 0.1766771515223285, 0.1832509339605614, 0.1495356645625432, 0.21873376518114246, 0.1969462993029355, 0.17026771972454383, 0.17935657916778872, 0.14773075841335576, 0.14775713188579837, 0.21574212623065506, 0.2010409991063408, 0.15948973586941853, 0.16158585942258233, 0.23728012715309738, 0.17006287432174585, 0.1339543613165899, 0.1425571990063099, 0.20694727568032475, 0.16441513073942762, 0.14204277062210888, 0.12980461903948246, 0.14589641675333798, 0.16511198066778854, 0.16860525890469136, 0.14219643253776035, 0.1849176227633695, 0.15568405565024146, 0.15888956238082666, 0.17532563851465643, 0.14757155279973277, 0.2004853353075292, 0.14757951673357383, 0.16022519758815804, 0.1798763137617232, 0.127429943915487, 0.1340221115077831, 0.15844263453357635, 0.14263200109403754, 0.13265276484413618, 0.17214168272459995, 0.16095045519551113, 0.162321715952234, 0.1548559553941121, 0.1922818859523574, 0.1337117607372178, 0.24878793817005695, 0.10914322978791886, 0.12724674307837866, 0.16273985818326797, 0.1437660702500671, 0.15345846677133282, 0.32573334508361046, 0.13093444552665207, 0.14612208646355293, 0.2925285457460722, 0.14521281976137496, 0.12480532036108852, 0.164023914537962, 0.12303407849091394, 0.13620696606927715, 0.16845454342877855, 0.14928775064512878, 0.12366309564750427, 0.3740205129703298, 0.1198335502700014, 0.1253697962006536, 0.333222488700711, 0.11560599996747248, 0.13542649101309906, 0.12463272245003944, 0.19782599390621147, 0.10241996683522642, 0.13459285157954676, 0.1781928604184531, 0.11578366815509472, 0.2545794727238198, 0.12234671899195103, 0.12637787906500267, 0.45783229634568107, 0.10201836115517768, 0.11110988370040545, 0.13314421283530278, 0.19830814866487204, 0.10499215700334383, 0.12188055088806796, 0.1454824055021496, 0.18361866178319583, 0.17145108280076987, 0.10010571999750363, 0.1978408573750553, 0.11964778945739882, 0.13285001078662376, 0.19637148375722, 0.10580918356743764, 0.10954506352411636, 0.1573007498024889, 0.12773215341805183, 0.10972603669400036, 0.1234302347887142, 0.3854760108723156, 0.12463303530738457, 0.11142745546907648, 0.1462185314000057, 0.20852717071953922, 0.09880394043683981, 0.14746181888624807, 0.3980423878212327, 0.10197240319891439, 0.10505366949335589, 0.4496323856723954, 0.07916792099465127, 0.24680626518436574, 0.09944905964034804, 0.32189257588824666, 0.1117500797948313, 0.06551850186148234, 0.33802510967767696, 0.11844933400104318, 0.07799266964486372, 0.3032964370561239, 0.14423497221398152, 0.06059371424482224, 0.437368220094549, 0.13678917412150363, 0.04874723797863377, 0.038499056213209794, 0.39958451865600547, 0.07088325194349582, 0.04514406204706746, 0.48482360226099785, 0.1103745538493923, 0.04653664241262679, 0.2763525199452023, 0.15161076951039185, 0.05588592063523501, 0.03756098518671996, 0.3979673848072112, 0.07087979183185138, 0.03883700571480053, 0.4274879392155711, 0.15544836701841164, 0.04690986428878512, 0.26547062925370896, 0.11643215682120052, 0.05102026030368352, 0.04904208304831427, 0.1880268058610538, 0.08243999849036854, 0.09470584946481336, 0.3908707185998715, 0.0698069009060312, 0.04312857448369737, 0.46049410726605183, 0.07565122265870684, 0.051624146020612154, 0.713262854032836, 0.11064791555444384, 0.055882954303500994, 0.08147924140057115, 0.139615520967396, 0.06343401987120725, 1.2308736114274879, 0.11738756444610432, 0.05690339900142785]","[0.0, 59.256683593750004, 62.082531738281254, 64.93247998046876, 67.76548950195313, 70.58482299804687, 96.09403393554688, 98.93278344726562, 101.74911328124999, 104.56203588867186, 107.38466235351561, 132.7906760253906, 135.63085864257812, 138.47923413085937, 141.3091298828125, 144.14112963867188, 169.18448901367188, 171.99683520507813, 174.81015576171876, 177.63049414062502, 180.46674536132815, 208.25451489257816, 211.07315429687503, 213.91224951171878, 216.73433520507817, 219.55597778320316, 243.81831958007817, 246.6433247070313, 249.48280468750005, 252.32315405273442, 255.1447358398438, 279.38419287109383, 282.2163437500001, 285.0436352539063, 287.86105175781256, 290.73496850585946, 315.98958178710944, 318.8371123046876, 321.68807373046883, 324.5220493164063, 327.35407324218755, 352.28733105468757, 355.1230725097657, 357.9989370117188, 360.8514758300782, 363.6819089355469, 390.18551635742193, 393.01227172851566, 395.83613012695315, 398.7164626464844, 401.5368583984375, 425.9278349609375, 428.76735107421877, 431.59519140625, 434.43967700195316, 437.2660012207032, 466.7073801269532, 469.53245507812505, 472.3597202148438, 475.20047363281253, 478.04195166015626, 503.58115869140624, 506.4179072265625, 509.2596584472656, 512.0932541503906, 514.9316687011719, 540.7410378417969, 543.5649865722656, 546.3817495117188, 549.2072504882813, 552.0429614257813, 576.2940395507813, 579.1411066894532, 581.9892009277345, 584.8236586914063, 587.655693359375, 612.0368027343751, 614.8666059570313, 617.7008645019532, 620.5242495117188, 623.3591911621095, 648.4168278808595, 651.244713623047, 654.0628547363283, 656.9416093750002, 659.7711992187502, 683.2390781250002, 686.1196762695315, 689.1969804687502, 692.5143149414065, 696.3249997558596, 722.1476091308596, 726.4590490722658, 730.260559326172, 733.5928457031251, 737.6678413085939, 764.7520737304689, 769.3602749023438, 772.9269294433594, 776.2447626953126, 780.5610761718751, 809.1462871093752, 813.9442094726564, 818.5374140625001, 823.0779311523439, 827.924022949219, 853.2809819335939, 856.6006816406252, 862.356763183594, 867.172179199219, 872.212698730469, 897.932142089844, 902.9794843750002, 909.2588325195314, 914.8366005859377, 920.1300107421878, 948.8904970703128, 953.4506123046878, 958.4998193359378, 963.550999511719, 968.8405654296878, 997.0761435546877, 1002.4362626953127, 1007.9886630859378, 1014.5617412109378, 1021.3471899414066, 1048.0887543945316, 1053.4030629882816, 1058.7259155273441, 1064.1057021484378, 1069.6678828125002, 1099.6529238281253, 1106.2007036132816, 1112.4960375976566, 1118.5801196289067, 1124.6309291992193, 1153.0014428710942, 1159.0424946289068, 1165.3453374023443, 1171.6683022460943, 1177.479471679688, 1206.011200195313, 1212.5829804687505, 1218.8892827148443, 1226.6997343750006, 1234.0016147460944, 1266.1187612304695, 1273.1412768554696, 1280.9200854492196, 1288.6954589843758, 1295.240339843751, 1327.912087890626, 1338.868066406251, 1348.8916943359386, 1357.474363281251, 1367.0322138671886, 1399.7895771484386, 1408.3344843750012, 1416.41594873047, 1424.481302246095, 1432.7856684570327, 1465.6175434570328, 1474.1838374023453, 1483.2154409179702, 1491.7315991210953, 1499.8387695312515, 1532.9036992187514, 1541.167780273439, 1550.4593769531264, 1559.5029648437514, 1569.0463339843764, 1603.3799589843763, 1613.1670859375013, 1621.7067080078139, 1630.7269882812514, 1640.5457509765638, 1675.5165283203137, 1686.525107421876, 1697.051675781251, 1707.8332099609386, 1719.1040283203135, 1756.5746923828135, 1769.2610986328134, 1785.9653310546885, 1799.506369140626, 1813.0391845703134, 1850.8552392578133, 1865.2530996093758, 1878.5176894531257, 1897.2341679687506, 1913.5226025390632, 1952.240067382813, 1972.341565429688, 1991.562694335938, 2007.382770507813, 2024.9887216796878, 2063.980854492188, 2078.663475585938, 2095.7036181640633, 2113.4919619140633, 2129.090318359376, 2178.062728515626, 2199.674425781251, 2218.199167968751, 2245.744712890626, 2268.918757812501, 2313.102339843751, 2335.960126953126, 2367.908574218751, 2391.9948183593756, 2413.8987617187504, 2461.5744609375006, 2484.6803378906257, 2516.181199218751, 2543.026562500001, 2565.424578125001, 2630.979468750001, 2663.054353515626, 2688.143585937501, 2712.797132812501, 2743.2514746093757, 2790.222861328126, 2810.5788730468757, 2830.094957031251, 2856.609472656251, 2887.750328125001, 2936.768781250001, 2965.7873593750014, 2992.0673750000014, 3020.4749472656263, 3056.9620527343764, 3107.348041015626, 3130.240191406251, 3163.4314570312513, 3201.0517187500013, 3230.0232851562514, 3278.7765039062515, 3326.7803281250017, 3369.614996093752, 3404.032390625002, 3442.625781250002, 3518.9191562500023, 3558.647074218752, 3599.160144531252, 3681.2797851562523, 3745.7308359375024, 3825.5518437500023, 3951.8603906250023, 4041.6504765625023, 4169.036984375002, 4276.368015625002, 4487.840796875002, 4663.6207031250015, 4765.8467109375015, 5021.0980703125015, 5319.923851562501, 5527.462429687501, 5934.783148437501, 6462.497148437501, 6750.475148437501, 7533.287710937501, 8496.180210937502, 8951.363554687503, 9287.723710937504, 10139.858523437504, 10683.642335937504, 10968.310679687504, 11674.783367187503, 12405.497867187503, 12766.561585937503, 13736.059585937503, 15170.334210937503, 15902.795585937503, 16428.461210937505, 17776.215210937506, 18652.305398437507, 19060.049023437507, 19895.692835937505, 20888.547835937505, 21371.612179687505, 22197.022617187504, 23111.885117187503, 23553.826835937503, 23884.346648437502, 24435.474335937502, 24821.8503046875, 25320.0401796875, 26615.1020546875, 27448.9787421875, 27859.1440859375, 28757.9032109375, 29435.676148437502, 29757.836867187503, 30931.522867187505, 32095.798242187506, 32708.509617187505, 33417.724554687506, 34290.919367187504, 34771.9478984375, 37011.4121484375]","[67247, 743102, 1418517, 2100327, 2770393, 3443384, 4113626, 4787449, 5451513, 6145103, 6818425, 7511374, 8205347, 8870104, 9560339, 10207160, 10883744, 11562916, 12234470, 12903372, 13588282, 14273907, 14945709, 15633214, 16302974, 17009275, 17702794, 18366406, 19039873, 19712781, 20382617, 21054083, 21734847, 22400677, 23082698, 23766558, 24452374, 25139429, 25818801, 26507686, 27199055, 27872392, 28541146, 29212627, 29897126, 30598522, 31274752, 31957632, 32632868, 33300551, 33993733, 34664908, 35359018, 36033929, 36712999, 37390734, 38048636, 38711684, 39382532, 40068608, 40733083, 41417107, 42089010, 42771725, 43430963, 44113049, 44819444, 45491280, 46185796, 46862049, 47535842, 48216844, 48894490, 49571184, 50249691, 50956874, 51634226, 52304090, 52969811, 53639651, 54304224, 54970852, 55650904, 56335226, 57010341, 57705119, 58387520, 59148779, 59942128, 60886631, 61768609, 62855297, 63817916, 64631824, 65659176, 66732824, 67869571, 68723768, 69536101, 70625928, 71867992, 73076417, 74222125, 75374141, 76630214, 77652606, 78479157, 79970114, 81176489, 82469635, 83758792, 85037334, 86673431, 88094406, 89430354, 90517781, 91660305, 92954759, 94226540, 95588622, 96885728, 98229058, 99656538, 101315519, 103067179, 104552967, 105906956, 107257998, 108608548, 110019419, 111669082, 113372013, 114987661, 116542582, 118125692, 119537020, 121116510, 122723029, 124366901, 125836341, 127525191, 129234930, 130858393, 132883755, 134782218, 136540130, 138345110, 140355686, 142396289, 144076903, 146589028, 149527489, 152161976, 154428260, 156928546, 159557672, 161818841, 163954293, 166061492, 168239870, 170583046, 172824921, 175199724, 177444382, 179545742, 181713238, 183862193, 186312794, 188709015, 191226369, 194338815, 196941978, 199168750, 201541065, 204162951, 206816102, 209771569, 212558478, 215412916, 218390406, 221889919, 225237747, 229705363, 233300668, 236868376, 241062229, 244920484, 248456740, 253505747, 257820764, 261691847, 267156024, 272336311, 276556741, 281256704, 285529307, 289470977, 294006734, 298781688, 302917380, 309887004, 315652111, 320630725, 328091063, 334271976, 339768537, 345961400, 354563388, 360961036, 366766593, 373493214, 379725234, 388204998, 395442771, 401459436, 412924261, 421606210, 428335638, 434908225, 443032830, 449526528, 454975657, 460202001, 467325455, 475697179, 482469877, 490383773, 497441068, 505010261, 514716169, 522095460, 528271983, 537274572, 547433844, 555136660, 562107623, 575053261, 586622763, 595760216, 606038855, 619654441, 630497243, 641407322, 663473902, 680706890, 695824515, 730030165, 754257310, 788435058, 817241368, 868121482, 915886626, 943284759, 1011940068, 1092387894, 1140859919, 1250569965, 1392233820, 1469602315, 1680085529, 1932370557, 2054698214, 2144918401, 2374010376, 2520517550, 2589548028, 2779858056, 2976382361, 3073506205, 3334313148, 3713354411, 3910075017, 4051173417, 4413421221, 4648844775, 4752081876, 4977301021, 5244420196, 5374586737, 5596858186, 5837047048, 5956323434, 6045402330, 6186427365, 6290853148, 6418250546, 6767011943, 6990884231, 7101260864, 7342855457, 7515453442, 7602569155, 7918598720, 8231919063, 8396576251, 8580897915, 8816789960, 8946099999, 9548999104, 10000026209]","[6.7247e-06, 7.43102e-05, 0.0001418517, 0.0002100327, 0.0002770393, 0.0003443384, 0.0004113626, 0.0004787449, 0.0005451513, 0.0006145103, 0.0006818425, 0.0007511374, 0.0008205347, 0.0008870104, 0.0009560339, 0.001020716, 0.0010883744, 0.0011562916, 0.001223447, 0.0012903372, 0.0013588282, 0.0014273907, 0.0014945709, 0.0015633214, 0.0016302974, 0.0017009275, 0.0017702794, 0.0018366406, 0.0019039873, 0.0019712781, 0.0020382617, 0.0021054083, 0.0021734847, 0.0022400677, 0.0023082698, 0.0023766558, 0.0024452374, 0.0025139429, 0.0025818801, 0.0026507686, 0.0027199055, 0.0027872392, 0.0028541146, 0.0029212627, 0.0029897126, 0.0030598522, 0.0031274752, 0.0031957632, 0.0032632868, 0.0033300551, 0.0033993733, 0.0034664908, 0.0035359018, 0.0036033929, 0.0036712999, 0.0037390734, 0.0038048636, 0.0038711684, 0.0039382532, 0.0040068608, 0.0040733083, 0.0041417107, 0.004208901, 0.0042771725, 0.0043430963, 0.0044113049, 0.0044819444, 0.004549128, 0.0046185796, 0.0046862049, 0.0047535842, 0.0048216844, 0.004889449, 0.0049571184, 0.0050249691, 0.0050956874, 0.0051634226, 0.005230409, 0.0052969811, 0.0053639651, 0.0054304224, 0.0054970852, 0.0055650904, 0.0056335226, 0.0057010341, 0.0057705119, 0.005838752, 0.0059148779, 0.0059942128, 0.0060886631, 0.0061768609, 0.0062855297, 0.0063817916, 0.0064631824, 0.0065659176, 0.0066732824, 0.0067869571, 0.0068723768, 0.0069536101, 0.0070625928, 0.0071867992, 0.0073076417, 0.0074222125, 0.0075374141, 0.0076630214, 0.0077652606, 0.0078479157, 0.0079970114, 0.0081176489, 0.0082469635, 0.0083758792, 0.0085037334, 0.0086673431, 0.0088094406, 0.0089430354, 0.0090517781, 0.0091660305, 0.0092954759, 0.009422654, 0.0095588622, 0.0096885728, 0.0098229058, 0.0099656538, 0.0101315519, 0.0103067179, 0.0104552967, 0.0105906956, 0.0107257998, 0.0108608548, 0.0110019419, 0.0111669082, 0.0113372013, 0.0114987661, 0.0116542582, 0.0118125692, 0.011953702, 0.012111651, 0.0122723029, 0.0124366901, 0.0125836341, 0.0127525191, 0.012923493, 0.0130858393, 0.0132883755, 0.0134782218, 0.013654013, 0.013834511, 0.0140355686, 0.0142396289, 0.0144076903, 0.0146589028, 0.0149527489, 0.0152161976, 0.015442826, 0.0156928546, 0.0159557672, 0.0161818841, 0.0163954293, 0.0166061492, 0.016823987, 0.0170583046, 0.0172824921, 0.0175199724, 0.0177444382, 0.0179545742, 0.0181713238, 0.0183862193, 0.0186312794, 0.0188709015, 0.0191226369, 0.0194338815, 0.0196941978, 0.019916875, 0.0201541065, 0.0204162951, 0.0206816102, 0.0209771569, 0.0212558478, 0.0215412916, 0.0218390406, 0.0221889919, 0.0225237747, 0.0229705363, 0.0233300668, 0.0236868376, 0.0241062229, 0.0244920484, 0.024845674, 0.0253505747, 0.0257820764, 0.0261691847, 0.0267156024, 0.0272336311, 0.0276556741, 0.0281256704, 0.0285529307, 0.0289470977, 0.0294006734, 0.0298781688, 0.030291738, 0.0309887004, 0.0315652111, 0.0320630725, 0.0328091063, 0.0334271976, 0.0339768537, 0.03459614, 0.0354563388, 0.0360961036, 0.0366766593, 0.0373493214, 0.0379725234, 0.0388204998, 0.0395442771, 0.0401459436, 0.0412924261, 0.042160621, 0.0428335638, 0.0434908225, 0.044303283, 0.0449526528, 0.0454975657, 0.0460202001, 0.0467325455, 0.0475697179, 0.0482469877, 0.0490383773, 0.0497441068, 0.0505010261, 0.0514716169, 0.052209546, 0.0528271983, 0.0537274572, 0.0547433844, 0.055513666, 