last_val_loss,dataset,ul2,causal_denoisers,noncausal_masking,causal_divider,s_divider,r_divider,x_divider,randomize_denoiser_settings,randomize_mask_width,no_special_tokens,alternate_denoisers,progressive_tasks,model_scale,depth,width,num_params,num_non_embedding_params,num_heads,lr_mult,linear_value,seed,run_num,max_epochs,max_steps,max_tokens,max_time_seconds,gpu_capacity_scalar,train_loss_causal,train_pplx_causal,train_acc_causal,train_loss_s,train_pplx_s,train_loss_r,train_pplx_r,train_loss_x,train_pplx_x,train_acc_x_causal,train_acc_r_causal,train_acc_s_causal,train_acc_x_masked,train_acc_r_masked,train_acc_s_masked,val_loss_causal,val_pplx_causal,val_acc_causal,val_loss_s,val_pplx_s,val_loss_r,val_pplx_r,val_loss_x,val_pplx_x,grad_norm,cumulative_time,tokens_seen,epoch,batch_size,seq_length,learning_rate,weight_decay
2.7916667461395264,fineweb,false,false,false,1.0,0.0,0.0,0.0,false,false,false,false,false,16.80486971279296,35,1664,773187619,605755939,26,0.9,false,1600,1,1.0,1000000000,1000000000000,1000000000,1.9,"[10.9375, 7.25, 6.8125, 6.625, 6.34375, 6.25, 6.125, 6.0625, 6.15625, 5.96875, 5.84375, 5.90625, 5.6875, 5.65625, 5.59375, 5.53125, 5.625, 5.65625, 5.5, 5.46875, 5.40625, 5.4375, 5.25, 5.53125, 5.34375, 5.375, 5.4375, 5.1875, 5.40625, 5.28125, 5.09375, 5.09375, 5.3125, 5.0625, 5.03125, 4.96875, 4.96875, 5.0, 5.03125, 4.90625, 4.90625, 4.84375, 4.9375, 4.78125, 4.8125, 4.75, 4.8125, 4.65625, 4.84375, 4.8125, 4.53125, 4.6875, 4.65625, 4.71875, 4.65625, 4.875, 4.5625, 4.59375, 4.59375, 4.6875, 4.46875, 4.5, 4.40625, 4.65625, 4.46875, 4.4375, 4.4375, 4.5, 4.40625, 4.46875, 4.375, 4.375, 4.40625, 4.3125, 4.40625, 4.5, 4.34375, 4.28125, 4.1875, 4.3125, 4.3125, 4.28125, 4.46875, 4.1875, 4.28125, 4.09375, 4.28125, 4.125, 4.1875, 4.09375, 4.09375, 4.125, 4.09375, 3.9375, 4.21875, 3.984375, 4.15625, 4.0625, 4.125, 4.09375, 4.09375, 3.953125, 4.15625, 4.09375, 4.0625, 4.3125, 4.125, 4.09375, 4.125, 3.859375, 3.84375, 4.09375, 3.8125, 3.9375, 3.96875, 4.0625, 3.90625, 4.21875, 3.75, 3.984375, 3.8125, 3.90625, 3.984375, 3.96875, 3.953125, 3.90625, 3.921875, 3.78125, 3.9375, 3.859375, 3.859375, 3.625, 3.984375, 3.890625, 3.78125, 3.90625, 3.8125, 3.75, 3.78125, 3.78125, 3.9375, 3.796875, 3.703125, 3.859375, 3.71875, 3.921875, 3.78125, 3.625, 3.78125, 3.796875, 3.84375, 3.546875, 3.78125, 3.53125, 3.703125, 3.703125, 3.6875, 3.703125, 3.515625, 3.515625, 3.625, 3.671875, 3.609375, 3.578125, 3.765625, 3.625, 3.53125, 3.703125, 3.640625, 3.65625, 3.6875, 3.65625, 3.546875, 3.796875, 3.65625, 3.65625, 3.671875, 3.703125, 3.53125, 3.484375, 3.546875, 3.734375, 3.59375, 3.59375, 3.5625, 3.421875, 3.671875, 3.609375, 3.578125, 3.5625, 3.46875, 3.453125, 3.5625, 3.53125, 3.8125, 3.609375, 3.71875, 3.515625, 3.5625, 3.453125, 3.578125, 3.484375, 3.640625, 3.421875, 3.5625, 3.421875, 3.375, 3.421875, 3.5, 3.40625, 3.578125, 3.515625, 3.375, 3.40625, 3.546875, 3.21875, 3.671875, 3.453125, 3.4375, 3.40625, 3.40625, 3.34375, 3.421875, 3.515625, 3.421875, 3.421875, 3.609375, 3.375, 3.390625, 3.296875, 3.484375, 3.421875, 3.5, 3.484375, 3.65625, 3.578125, 3.28125, 3.390625, 3.375, 3.390625, 3.34375, 3.546875, 3.21875, 3.3125, 3.421875, 3.34375, 3.46875, 3.328125, 3.265625, 3.46875, 3.390625, 3.390625, 3.46875, 3.40625, 3.390625, 3.296875, 3.484375, 3.234375, 3.34375, 3.375, 3.34375, 3.28125, 3.375, 3.328125, 3.28125, 3.359375, 3.3125, 3.1875, 3.359375, 3.296875, 3.15625, 3.40625, 3.515625, 3.40625, 3.296875, 3.484375, 3.3125, 3.34375, 3.40625, 3.359375, 3.1875, 3.421875, 3.421875, 3.375, 3.234375, 3.390625, 3.453125, 3.328125, 3.546875, 3.328125, 3.21875, 3.3125, 3.390625, 3.40625, 3.28125, 3.359375, 3.296875, 3.3125, 3.140625, 3.25, 3.4375, 3.3125, 3.296875, 3.359375, 3.296875, 3.375, 3.34375, 3.390625, 3.34375, 3.25, 3.25, 3.390625, 3.171875, 3.375, 3.171875, 3.34375, 3.25, 3.375, 3.34375, 3.265625, 3.1875, 3.328125, 3.265625, 3.3125, 3.265625, 3.40625, 3.359375, 3.421875, 3.296875, 3.296875, 3.203125, 3.234375, 3.125, 3.203125, 3.421875, 3.328125, 3.296875, 3.234375, 3.171875, 3.296875, 3.296875, 3.171875, 3.1875, 3.25, 3.34375, 3.265625, 3.359375, 3.21875, 3.359375, 3.28125, 3.203125, 3.234375, 3.296875, 3.40625, 3.234375, 3.265625, 3.25, 3.3125, 3.15625, 3.328125, 3.25, 3.296875, 3.203125, 3.421875, 3.0625, 3.375, 3.21875, 3.140625, 2.984375, 3.203125, 3.140625, 3.125, 3.3125, 3.265625, 3.25, 3.171875, 3.171875, 3.15625, 3.3125, 3.15625, 3.390625, 3.390625, 3.171875, 3.21875, 3.15625, 3.28125, 3.109375, 3.234375, 3.25, 3.25, 3.234375, 3.21875, 3.25, 3.125, 3.265625, 3.15625, 3.140625, 3.203125, 3.171875, 3.09375, 3.3125, 3.28125, 3.234375, 3.203125, 3.234375, 3.15625, 3.1875, 3.078125, 3.15625, 3.140625, 3.203125, 3.03125, 3.34375, 3.109375, 3.28125, 3.1875, 3.203125, 3.296875, 3.296875, 3.1875, 3.09375, 3.28125, 3.21875, 3.171875, 3.09375, 3.0625, 3.09375, 3.296875, 3.125, 3.21875, 2.984375, 3.21875, 3.171875, 3.171875, 3.171875, 3.28125, 3.21875, 3.140625, 3.078125, 3.234375, 3.21875, 3.109375, 3.09375, 3.203125, 3.15625, 3.09375, 3.140625, 3.171875, 3.203125, 3.296875, 3.15625, 3.171875, 3.109375, 3.328125, 3.046875, 3.046875, 3.171875, 3.265625, 3.125, 3.0, 3.25, 3.171875, 3.078125, 3.125, 3.078125, 3.046875, 3.09375, 3.09375, 2.984375, 3.078125, 3.171875, 3.15625, 3.078125, 3.109375, 3.125, 3.078125, 3.09375, 3.234375, 3.078125, 3.015625, 3.03125, 3.078125, 3.09375, 3.0625, 3.0625, 3.0625, 3.078125, 3.0, 2.96875, 3.109375, 3.078125, 2.9375, 3.140625, 3.0625, 3.1875, 3.078125, 3.015625, 3.046875, 3.125, 3.328125, 3.234375, 3.125, 3.171875, 2.953125, 3.15625, 2.890625, 2.9375, 2.984375, 3.15625, 3.140625, 3.078125, 3.21875, 2.90625, 3.140625, 3.1875, 3.0, 3.125, 3.0625, 3.140625, 3.0, 3.1875, 3.09375, 2.984375, 3.046875, 2.984375, 3.0625, 3.140625, 3.125, 3.109375, 3.140625, 3.046875, 3.09375, 2.9375, 3.140625, 2.984375, 2.984375, 3.09375, 3.1875, 2.96875, 3.0, 3.109375, 3.0, 3.171875, 3.0625, 2.984375, 3.046875, 2.96875, 3.125, 3.078125, 2.953125, 3.046875, 3.125, 3.078125, 3.21875, 3.0, 3.078125, 3.109375, 3.09375, 2.90625, 3.109375, 3.21875, 2.921875, 2.984375, 3.046875, 3.125, 3.1875, 3.265625, 3.25, 2.953125, 2.984375, 3.09375, 3.203125, 3.1875, 2.953125, 3.03125, 3.125, 3.0, 3.046875, 2.875, 3.140625, 2.9375, 3.078125, 3.0625, 3.0625, 3.046875, 3.0625, 3.0625, 3.09375, 3.0625, 3.046875, 3.125, 3.09375, 3.265625, 3.0, 3.03125, 2.9375, 3.109375, 3.015625, 3.015625, 3.078125, 3.0, 3.0, 3.1875, 3.1875, 3.015625, 3.125, 3.0, 2.890625, 2.90625, 2.90625, 3.09375, 3.0, 3.140625, 3.078125, 2.890625, 3.046875, 3.109375, 2.96875, 3.0, 2.890625, 3.09375, 3.1875, 3.140625, 2.9375, 2.875, 3.0625, 2.9375, 3.109375, 3.0625, 2.953125, 3.03125, 3.125, 3.09375, 3.078125, 2.921875, 3.078125, 3.0625, 2.875, 2.984375, 3.03125, 2.921875, 2.890625, 3.265625, 2.96875, 3.015625, 3.03125, 2.9375, 3.1875, 3.03125, 2.9375, 2.84375, 3.1875, 3.125, 3.03125, 3.03125, 3.078125, 2.90625, 3.046875, 2.96875, 2.875, 3.0, 2.828125, 2.703125, 3.0625, 3.0, 3.015625, 2.984375, 3.015625, 3.015625, 2.984375, 3.078125, 3.109375, 3.03125, 2.84375, 2.9375, 3.125, 3.1875, 2.984375, 3.015625, 2.890625, 2.84375, 2.890625, 2.984375, 3.015625, 3.125, 3.0625, 2.953125, 3.0625, 2.9375, 3.078125, 3.109375, 3.109375, 2.96875, 2.953125, 2.859375, 3.0, 2.96875, 2.921875, 2.890625, 2.953125, 2.90625, 3.046875, 2.921875, 2.84375, 3.015625, 2.8125, 2.875, 2.90625, 3.015625, 2.921875, 3.03125, 2.90625, 2.96875, 3.046875, 3.09375, 2.96875, 2.875, 2.875, 2.921875, 2.96875, 3.03125, 2.984375, 2.859375, 3.046875, 3.0625, 2.921875, 2.953125, 2.78125, 2.71875, 2.921875, 3.015625, 2.84375, 3.015625, 3.109375, 2.96875, 3.0, 3.0, 2.859375, 3.125, 2.9375, 3.265625, 3.046875, 2.90625, 2.953125, 3.015625, 3.015625, 2.984375, 2.890625, 2.796875, 2.9375, 3.0, 2.90625, 3.015625, 2.84375, 2.96875, 2.859375, 3.0, 2.953125, 3.015625, 3.0, 3.0, 3.03125, 3.0625, 2.796875, 2.890625, 3.03125, 3.109375, 2.90625, 2.875, 2.96875, 2.90625, 3.0625, 3.015625, 2.859375, 2.96875, 2.921875, 3.078125, 2.96875, 2.859375, 2.96875, 3.0, 3.046875, 2.96875, 3.0, 2.921875, 2.8125, 2.921875, 3.046875, 2.96875, 2.90625, 3.0625, 2.96875, 2.96875, 2.703125, 3.015625, 2.875, 2.890625, 2.8125, 2.984375, 2.921875, 2.9375, 2.921875, 3.0, 3.015625, 3.0, 3.0, 2.859375, 2.875, 2.875, 2.984375, 2.921875, 2.90625, 2.859375, 3.046875, 3.0625, 2.953125, 3.0, 2.90625, 2.96875, 2.828125, 2.828125, 2.859375, 2.984375, 3.015625, 3.109375, 3.015625, 2.953125, 2.765625, 2.75, 2.90625, 2.953125, 2.8125, 2.984375, 2.96875, 2.859375, 3.015625, 2.984375, 2.859375, 2.9375, 2.9375, 2.90625, 2.828125, 2.84375, 2.9375, 3.015625, 2.921875, 3.09375, 2.828125, 2.984375, 2.859375, 2.859375, 3.03125, 2.8125, 2.953125, 2.859375, 2.890625, 2.859375, 3.046875, 2.6875, 2.875, 3.0, 2.828125, 2.890625, 2.890625, 2.828125, 2.96875, 2.765625, 2.890625, 2.796875, 2.75, 2.859375, 2.9375, 2.96875, 3.0, 2.921875, 2.96875, 2.953125, 3.015625, 2.859375, 2.875, 2.859375, 2.84375, 2.9375, 2.9375, 2.953125, 2.984375, 2.8125, 2.953125, 2.890625, 2.921875, 2.890625, 2.875, 2.828125, 2.96875, 2.859375, 2.84375, 2.890625, 2.90625, 3.03125, 2.90625, 2.875, 3.0, 2.8125, 3.046875, 2.78125, 2.859375, 2.796875, 2.796875, 2.828125, 2.859375, 2.78125, 2.828125, 2.828125, 2.90625, 2.890625, 2.984375, 2.9375, 3.0625, 2.84375, 2.921875, 3.03125, 2.796875, 2.828125, 2.984375, 2.828125, 2.75, 2.765625, 2.671875, 3.03125, 2.96875, 2.8125, 2.859375, 2.765625, 2.796875, 2.84375, 2.859375, 3.0, 2.859375, 2.75, 2.890625, 2.859375, 2.640625, 2.78125, 2.8125, 2.75, 2.890625, 2.734375, 2.859375, 2.875, 2.765625, 2.828125, 2.890625, 2.90625, 2.8125, 3.09375, 2.9375, 3.015625, 2.859375, 3.015625, 2.875, 2.875, 2.875, 2.828125, 2.859375, 2.890625, 2.796875, 2.859375, 2.71875, 2.96875, 2.84375, 2.859375, 2.78125, 2.8125, 2.953125, 2.671875, 2.921875, 2.640625, 2.890625, 2.75, 2.78125, 2.90625, 2.640625, 2.75, 2.859375, 2.875, 2.8125, 2.734375, 2.671875, 2.875, 2.90625, 2.859375, 3.0, 2.90625, 2.734375, 2.84375, 2.90625, 2.796875, 2.859375, 2.8125, 2.734375, 2.890625, 2.84375, 2.765625, 2.734375, 2.578125, 2.796875, 2.875, 2.8125, 2.8125, 2.859375, 2.75, 2.890625, 2.75, 2.609375, 2.796875, 2.6875, 2.71875, 2.78125, 2.765625, 2.78125, 2.703125, 2.78125, 2.796875, 2.703125, 2.734375, 2.6875, 2.90625, 2.78125, 2.8125, 2.765625, 2.859375, 2.75, 2.765625, 2.96875, 2.6875, 2.859375, 2.78125, 2.6875, 2.765625, 2.703125, 2.6875, 2.765625, 2.75, 2.734375, 2.71875, 2.78125, 2.640625, 2.671875, 2.75, 2.78125, 2.859375, 2.828125, 2.703125, 2.640625, 2.578125, 2.828125, 2.703125, 2.71875, 2.640625, 2.515625, 2.75, 2.859375, 2.6875, 2.71875, 2.765625, 2.6875, 2.609375, 2.71875, 2.65625, 2.59375, 2.6875, 2.625, 2.640625, 2.796875, 2.671875, 2.484375, 2.796875, 2.609375, 2.671875, 2.609375, 2.671875, 2.78125, 2.703125, 2.703125, 2.796875, 2.65625, 2.6875, 2.71875, 2.671875, 2.546875, 2.734375, 2.734375, 2.671875, 2.5625, 2.734375, 2.6875, 2.75, 2.625, 2.6875, 2.65625, 2.53125, 2.609375, 2.65625, 2.65625, 2.6875]","[56320.0, 1408.0, 912.0, 756.0, 568.0, 520.0, 458.0, 430.0, 472.0, 392.0, 346.0, 368.0, 296.0, 286.0, 270.0, 253.0, 278.0, 286.0, 245.0, 237.0, 223.0, 230.0, 191.0, 253.0, 209.0, 216.0, 230.0, 179.0, 223.0, 197.0, 163.0, 163.0, 203.0, 158.0, 153.0, 144.0, 144.0, 149.0, 153.0, 135.0, 135.0, 127.0, 140.0, 119.5, 123.0, 115.5, 123.0, 105.5, 127.0, 123.0, 93.0, 108.5, 105.5, 112.0, 105.5, 131.0, 96.0, 99.0, 99.0, 108.5, 87.5, 90.0, 82.0, 105.5, 87.5, 84.5, 84.5, 90.0, 82.0, 87.5, 79.5, 79.5, 82.0, 74.5, 82.0, 90.0, 77.0, 72.5, 66.0, 74.5, 74.5, 72.5, 87.5, 66.0, 72.5, 60.0, 72.5, 62.0, 66.0, 60.0, 60.0, 62.0, 60.0, 51.25, 68.0, 53.75, 64.0, 58.25, 62.0, 60.0, 60.0, 52.25, 64.0, 60.0, 58.25, 74.5, 62.0, 60.0, 62.0, 47.5, 46.75, 60.0, 45.25, 51.25, 53.0, 58.25, 49.75, 68.0, 42.5, 53.75, 45.25, 49.75, 53.75, 53.0, 52.25, 49.75, 50.5, 44.0, 51.25, 47.5, 47.5, 37.5, 53.75, 49.0, 44.0, 49.75, 45.25, 42.5, 44.0, 44.0, 51.25, 44.5, 40.5, 47.5, 41.25, 50.5, 44.0, 37.5, 44.0, 44.5, 46.75, 34.75, 44.0, 34.25, 40.5, 40.5, 40.0, 40.5, 33.75, 33.75, 37.5, 39.25, 37.0, 35.75, 43.25, 37.5, 34.25, 40.5, 38.25, 38.75, 40.0, 38.75, 34.75, 44.5, 38.75, 38.75, 39.25, 40.5, 34.25, 32.5, 34.75, 42.0, 36.5, 36.5, 35.25, 30.625, 39.25, 37.0, 35.75, 35.25, 32.0, 31.625, 35.25, 34.25, 45.25, 37.0, 41.25, 33.75, 35.25, 31.625, 35.75, 32.5, 38.25, 30.625, 35.25, 30.625, 29.25, 30.625, 33.25, 30.125, 35.75, 33.75, 29.25, 30.125, 34.75, 25.0, 39.25, 31.625, 31.125, 30.125, 30.125, 28.375, 30.625, 33.75, 30.625, 30.625, 37.0, 29.25, 29.75, 27.0, 32.5, 30.625, 33.25, 32.5, 38.75, 35.75, 26.625, 29.75, 29.25, 29.75, 28.375, 34.75, 25.0, 27.5, 30.625, 28.375, 32.0, 27.875, 26.25, 32.0, 29.75, 29.75, 32.0, 30.125, 29.75, 27.0, 32.5, 25.375, 28.375, 29.25, 28.375, 26.625, 29.25, 27.875, 26.625, 28.75, 27.5, 24.25, 28.75, 27.0, 23.5, 30.125, 33.75, 30.125, 27.0, 32.5, 27.5, 28.375, 30.125, 28.75, 24.25, 30.625, 30.625, 29.25, 25.375, 29.75, 31.625, 27.875, 34.75, 27.875, 25.0, 27.5, 29.75, 30.125, 26.625, 28.75, 27.0, 27.5, 23.125, 25.75, 31.125, 27.5, 27.0, 28.75, 27.0, 29.25, 28.375, 29.75, 28.375, 25.75, 25.75, 29.75, 23.875, 29.25, 23.875, 28.375, 25.75, 29.25, 28.375, 26.25, 24.25, 27.875, 26.25, 27.5, 26.25, 30.125, 28.75, 30.625, 27.0, 27.0, 24.625, 25.375, 22.75, 24.625, 30.625, 27.875, 27.0, 25.375, 23.875, 27.0, 27.0, 23.875, 24.25, 25.75, 28.375, 26.25, 28.75, 25.0, 28.75, 26.625, 24.625, 25.375, 27.0, 30.125, 25.375, 26.25, 25.75, 27.5, 23.5, 27.875, 25.75, 27.0, 24.625, 30.625, 21.375, 29.25, 25.0, 23.125, 19.75, 24.625, 23.125, 22.75, 27.5, 26.25, 25.75, 23.875, 23.875, 23.5, 27.5, 23.5, 29.75, 29.75, 23.875, 25.0, 23.5, 26.625, 22.375, 25.375, 25.75, 25.75, 25.375, 25.0, 25.75, 22.75, 26.25, 23.5, 23.125, 24.625, 23.875, 22.125, 27.5, 26.625, 25.375, 24.625, 25.375, 23.5, 24.25, 21.75, 23.5, 23.125, 24.625, 20.75, 28.375, 22.375, 26.625, 24.25, 24.625, 27.0, 27.0, 24.25, 22.125, 26.625, 25.0, 23.875, 22.125, 21.375, 22.125, 27.0, 22.75, 25.0, 19.75, 25.0, 23.875, 23.875, 23.875, 26.625, 25.0, 23.125, 21.75, 25.375, 25.0, 22.375, 22.125, 24.625, 23.5, 22.125, 23.125, 23.875, 24.625, 27.0, 23.5, 23.875, 22.375, 27.875, 21.0, 21.0, 23.875, 26.25, 22.75, 20.125, 25.75, 23.875, 21.75, 22.75, 21.75, 21.0, 22.125, 22.125, 19.75, 21.75, 23.875, 23.5, 21.75, 22.375, 22.75, 21.75, 22.125, 25.375, 21.75, 20.375, 20.75, 21.75, 22.125, 21.375, 21.375, 21.375, 21.75, 20.125, 19.5, 22.375, 21.75, 18.875, 23.125, 21.375, 24.25, 21.75, 20.375, 21.0, 22.75, 27.875, 25.375, 22.75, 23.875, 19.125, 23.5, 18.0, 18.875, 19.75, 23.5, 23.125, 21.75, 25.0, 18.25, 23.125, 24.25, 20.125, 22.75, 21.375, 23.125, 20.125, 24.25, 22.125, 19.75, 21.0, 19.75, 21.375, 23.125, 22.75, 22.375, 23.125, 21.0, 22.125, 18.875, 23.125, 19.75, 19.75, 22.125, 24.25, 19.5, 20.125, 22.375, 20.125, 23.875, 21.375, 19.75, 21.0, 19.5, 22.75, 21.75, 19.125, 21.0, 22.75, 21.75, 25.0, 20.125, 21.75, 22.375, 22.125, 18.25, 22.375, 25.0, 18.625, 19.75, 21.0, 22.75, 24.25, 26.25, 25.75, 19.125, 19.75, 22.125, 24.625, 24.25, 19.125, 20.75, 22.75, 20.125, 21.0, 17.75, 23.125, 18.875, 21.75, 21.375, 21.375, 21.0, 21.375, 21.375, 22.125, 21.375, 21.0, 22.75, 22.125, 26.25, 20.125, 20.75, 18.875, 22.375, 20.375, 20.375, 21.75, 20.125, 20.125, 24.25, 24.25, 20.375, 22.75, 20.125, 18.0, 18.25, 18.25, 22.125, 20.125, 23.125, 21.75, 18.0, 21.0, 22.375, 19.5, 20.125, 18.0, 22.125, 24.25, 23.125, 18.875, 17.75, 21.375, 18.875, 22.375, 21.375, 19.125, 20.75, 22.75, 22.125, 21.75, 18.625, 21.75, 21.375, 17.75, 19.75, 20.75, 18.625, 18.0, 26.25, 19.5, 20.375, 20.75, 18.875, 24.25, 20.75, 18.875, 17.25, 24.25, 22.75, 20.75, 20.75, 21.75, 18.25, 21.0, 19.5, 17.75, 20.125, 16.875, 14.9375, 21.375, 20.125, 20.375, 19.75, 20.375, 20.375, 19.75, 21.75, 22.375, 20.75, 17.25, 18.875, 22.75, 24.25, 19.75, 20.375, 18.0, 17.25, 18.0, 19.75, 20.375, 22.75, 21.375, 19.125, 21.375, 18.875, 21.75, 22.375, 22.375, 19.5, 19.125, 17.5, 20.125, 19.5, 18.625, 18.0, 19.125, 18.25, 21.0, 18.625, 17.25, 20.375, 16.625, 17.75, 18.25, 20.375, 18.625, 20.75, 18.25, 19.5, 21.0, 22.125, 19.5, 17.75, 17.75, 18.625, 19.5, 20.75, 19.75, 17.5, 21.0, 21.375, 18.625, 19.125, 16.125, 15.1875, 18.625, 20.375, 17.25, 20.375, 22.375, 19.5, 20.125, 20.125, 17.5, 22.75, 18.875, 26.25, 21.0, 18.25, 19.125, 20.375, 20.375, 19.75, 18.0, 16.375, 18.875, 20.125, 18.25, 20.375, 17.25, 19.5, 17.5, 20.125, 19.125, 20.375, 20.125, 20.125, 20.75, 21.375, 16.375, 18.0, 20.75, 22.375, 18.25, 17.75, 19.5, 18.25, 21.375, 20.375, 17.5, 19.5, 18.625, 21.75, 19.5, 17.5, 19.5, 20.125, 21.0, 19.5, 20.125, 18.625, 16.625, 18.625, 21.0, 19.5, 18.25, 21.375, 19.5, 19.5, 14.9375, 20.375, 17.75, 18.0, 16.625, 19.75, 18.625, 18.875, 18.625, 20.125, 20.375, 20.125, 20.125, 17.5, 17.75, 17.75, 19.75, 18.625, 18.25, 17.5, 21.0, 21.375, 19.125, 20.125, 18.25, 19.5, 16.875, 16.875, 17.5, 19.75, 20.375, 22.375, 20.375, 19.125, 15.875, 15.625, 18.25, 19.125, 16.625, 19.75, 19.5, 17.5, 20.375, 19.75, 17.5, 18.875, 18.875, 18.25, 16.875, 17.25, 18.875, 20.375, 18.625, 22.125, 16.875, 19.75, 17.5, 17.5, 20.75, 16.625, 19.125, 17.5, 18.0, 17.5, 21.0, 14.6875, 17.75, 20.125, 16.875, 18.0, 18.0, 16.875, 19.5, 15.875, 18.0, 16.375, 15.625, 17.5, 18.875, 19.5, 20.125, 18.625, 19.5, 19.125, 20.375, 17.5, 17.75, 17.5, 17.25, 18.875, 18.875, 19.125, 19.75, 16.625, 19.125, 18.0, 18.625, 18.0, 17.75, 16.875, 19.5, 17.5, 17.25, 18.0, 18.25, 20.75, 18.25, 17.75, 20.125, 16.625, 21.0, 16.125, 17.5, 16.375, 16.375, 16.875, 17.5, 16.125, 16.875, 16.875, 18.25, 18.0, 19.75, 18.875, 21.375, 17.25, 18.625, 20.75, 16.375, 16.875, 19.75, 16.875, 15.625, 15.875, 14.5, 20.75, 19.5, 16.625, 17.5, 15.875, 16.375, 17.25, 17.5, 20.125, 17.5, 15.625, 18.0, 17.5, 14.0, 16.125, 16.625, 15.625, 18.0, 15.4375, 17.5, 17.75, 15.875, 16.875, 18.0, 18.25, 16.625, 22.125, 18.875, 20.375, 17.5, 20.375, 17.75, 17.75, 17.75, 16.875, 17.5, 18.0, 16.375, 17.5, 15.1875, 19.5, 17.25, 17.5, 16.125, 16.625, 19.125, 14.5, 18.625, 14.0, 18.0, 15.625, 16.125, 18.25, 14.0, 15.625, 17.5, 17.75, 16.625, 15.4375, 14.5, 17.75, 18.25, 17.5, 20.125, 18.25, 15.4375, 17.25, 18.25, 16.375, 17.5, 16.625, 15.4375, 18.0, 17.25, 15.875, 15.4375, 13.1875, 16.375, 17.75, 16.625, 16.625, 17.5, 15.625, 18.0, 15.625, 13.625, 16.375, 14.6875, 15.1875, 16.125, 15.875, 16.125, 14.9375, 16.125, 16.375, 14.9375, 15.4375, 14.6875, 18.25, 16.125, 16.625, 15.875, 17.5, 15.625, 15.875, 19.5, 14.6875, 17.5, 16.125, 14.6875, 15.875, 14.9375, 14.6875, 15.875, 15.625, 15.4375, 15.1875, 16.125, 14.0, 14.5, 15.625, 16.125, 17.5, 16.875, 14.9375, 14.0, 13.1875, 16.875, 14.9375, 15.1875, 14.0, 12.375, 15.625, 17.5, 14.6875, 15.1875, 15.875, 14.6875, 13.625, 15.1875, 14.25, 13.375, 14.6875, 13.8125, 14.0, 16.375, 14.5, 12.0, 16.375, 13.625, 14.5, 13.625, 14.5, 16.125, 14.9375, 14.9375, 16.375, 14.25, 14.6875, 15.1875, 14.5, 12.75, 15.4375, 15.4375, 14.5, 13.0, 15.4375, 14.6875, 15.625, 13.8125, 14.6875, 14.25, 12.5625, 13.625, 14.25, 14.25, 14.6875]","[0.0, 0.08384967595338821, 0.08974272757768631, 0.08428744226694107, 0.09536638110876083, 0.09459186345338821, 0.09890221059322357, 0.11560479551553726, 0.09593884646892548, 0.11449353396892548, 0.111328125, 0.12250807881355286, 0.13823410868644714, 0.10435748845338821, 0.12318157404661179, 0.10011449456214905, 0.12813173234462738, 0.12466325610876083, 0.1299164891242981, 0.11644665896892548, 0.12233971059322357, 0.12489897757768631, 0.14863954484462738, 0.11853448301553726, 0.13695447146892548, 0.12372036278247833, 0.14816810190677643, 0.1444638967514038, 0.1339237540960312, 0.13597790896892548, 0.15641836822032928, 0.13900862634181976, 0.15470096468925476, 0.15008755028247833, 0.18864493072032928, 0.15066002309322357, 0.15217538177967072, 0.14904363453388214, 0.15938173234462738, 0.1573612540960312, 0.13038793206214905, 0.1553071141242981, 0.1396821141242981, 0.16056033968925476, 0.14331896603107452, 0.12732353806495667, 0.16554418206214905, 0.16079606115818024, 0.1678677201271057, 0.15574488043785095, 0.15901131927967072, 0.18241514265537262, 0.18298760056495667, 0.14618130028247833, 0.16187365353107452, 0.17456896603107452, 0.15577855706214905, 0.1738954782485962, 0.14432920515537262, 0.15672144293785095, 0.16194100677967072, 0.185546875, 0.14288119971752167, 0.18500807881355286, 0.17339035868644714, 0.1748383641242981, 0.18780307471752167, 0.15567752718925476, 0.19359509646892548, 0.16177262365818024, 0.1854458451271057, 0.21036502718925476, 0.17635372281074524, 0.16093076765537262, 0.1834590584039688, 0.1590449959039688, 0.1700229048728943, 0.18130387365818024, 0.18110182881355286, 0.18965516984462738, 0.1709321141242981, 0.19113685190677643, 0.1776670217514038, 0.1864224076271057, 0.15005387365818024, 0.20447197556495667, 0.1690800040960312, 0.18689385056495667, 0.17655576765537262, 0.16133485734462738, 0.1971982717514038, 0.17850889265537262, 0.1541621834039688, 0.17753233015537262, 0.16231141984462738, 0.1641298532485962, 0.20157596468925476, 0.19601966440677643, 0.20285560190677643, 0.19558189809322357, 0.16918103396892548, 0.20484240353107452, 0.1913052201271057, 0.16433189809322357, 0.2138335108757019, 0.13617995381355286, 0.18113550543785095, 0.18002425134181976, 0.19511045515537262, 0.21992860734462738, 0.18393050134181976, 0.19100216031074524, 0.19511045515537262, 0.2021821141242981, 0.16345635056495667, 0.18911637365818024, 0.19780442118644714, 0.20063307881355286, 0.24360182881355286, 0.1974003165960312, 0.19386449456214905, 0.23989762365818024, 0.18702855706214905, 0.17733028531074524, 0.23356680572032928, 0.17658944427967072, 0.22632677853107452, 0.18285290896892548, 0.19083377718925476, 0.17251481115818024, 0.21955819427967072, 0.18989089131355286, 0.22403690218925476, 0.21440598368644714, 0.22794315218925476, 0.2060883641242981, 0.18504175543785095, 0.22040005028247833, 0.19760237634181976, 0.22538389265537262, 0.2061557173728943, 0.2382138967514038, 0.23302800953388214, 0.2040678858757019, 0.2547817826271057, 0.2081088423728943, 0.20352908968925476, 0.23612608015537262, 0.2188846915960312, 0.2383149266242981, 0.18712957203388214, 0.23942618072032928, 0.21113954484462738, 0.23484644293785095, 0.21460802853107452, 0.22989627718925476, 0.1992524266242981, 0.19069908559322357, 0.20369747281074524, 0.21646012365818024, 0.21534886956214905, 0.20585264265537262, 0.19389817118644714, 0.1844692826271057, 0.21800915896892548, 0.20972521603107452, 0.2716190814971924, 0.2332974076271057, 0.2002963423728943, 0.19891567528247833, 0.17887930572032928, 0.2560277581214905, 0.21760506927967072, 0.216796875, 0.21457435190677643, 0.2197939157485962, 0.1982758641242981, 0.1689789891242981, 0.20460668206214905, 0.2158539891242981, 0.24740706384181976, 0.21275591850280762, 0.21639278531074524, 0.2813510298728943, 0.2129579782485962, 0.23585668206214905, 0.18214574456214905, 0.20487608015537262, 0.22838091850280762, 0.2010371834039688, 0.2157192826271057, 0.22895339131355286, 0.22026535868644714, 0.2499326467514038, 0.26171875, 0.21403555572032928, 0.22737069427967072, 0.21507947146892548, 0.22696658968925476, 0.20171067118644714, 0.19962283968925476, 0.20464035868644714, 0.22056841850280762, 0.19386449456214905, 0.1983432173728943, 0.22639413177967072, 0.1971645951271057, 0.2041015625, 0.23265759646892548, 0.2059873342514038, 0.2412446141242981, 0.21245285868644714, 0.24949488043785095, 0.24191810190677643, 0.23275862634181976, 0.23403824865818024, 0.22784213721752167, 0.22383485734462738, 0.19804014265537262, 0.2540072798728943, 0.22595635056495667, 0.20430360734462738, 0.24555495381355286, 0.20682920515537262, 0.21605603396892548, 0.2257206290960312, 0.2130253165960312, 0.22905442118644714, 0.22208377718925476, 0.24006600677967072, 0.24643050134181976, 0.1951778084039688, 0.23521685600280762, 0.23198410868644714, 0.23312903940677643, 0.18999192118644714, 0.22891971468925476, 0.2547144293785095, 0.23666487634181976, 0.16934940218925476, 0.2628973722457886, 0.22918911278247833, 0.22403690218925476, 0.2021484375, 0.22093884646892548, 0.24986529350280762, 0.21713362634181976, 0.2373046875, 0.20191271603107452, 0.20726697146892548, 0.2129916548728943, 0.2010371834039688, 0.2235317826271057, 0.22878502309322357, 0.21177935600280762, 0.2715854048728943, 0.22292564809322357, 0.23615975677967072, 0.2050444483757019, 0.2765692472457886, 0.23417295515537262, 0.24360182881355286, 0.27485182881355286, 0.2625942826271057, 0.21073545515537262, 0.25043776631355286, 0.24949488043785095, 0.2607085108757019, 0.2539399266242981, 0.23575565218925476, 0.2742456793785095, 0.24430899322032928, 0.25171738862991333, 0.20878233015537262, 0.24824891984462738, 0.2060883641242981, 0.23663119971752167, 0.21709994971752167, 0.2647157907485962, 0.2713833451271057, 0.2502020597457886, 0.2509765625, 0.21605603396892548, 0.24373653531074524, 0.2654902935028076, 0.2646147608757019, 0.2470029592514038, 0.23562096059322357, 0.2587890625, 0.2537378668785095, 0.24168238043785095, 0.20255252718925476, 0.234375, 0.1953798532485962, 0.21797548234462738, 0.2109038233757019, 0.2625942826271057, 0.22440733015537262, 0.22807785868644714, 0.2129243016242981, 0.2382475733757019, 0.22497978806495667, 0.2530980706214905, 0.2531653940677643, 0.26111260056495667, 0.21854795515537262, 0.22922278940677643, 0.24531923234462738, 0.23690059781074524, 0.22339709103107452, 0.23972925543785095, 0.2294921875, 0.2549838423728943, 0.20635776221752167, 0.25720635056495667, 0.24939385056495667, 0.19369612634181976, 0.2207704782485962, 0.25074082612991333, 0.22925646603107452, 0.23861800134181976, 0.22393588721752167, 0.23498113453388214, 0.2430630326271057, 0.2362270951271057, 0.2098935842514038, 0.24882139265537262, 0.21622440218925476, 0.23265759646892548, 0.23265759646892548, 0.2323881983757019, 0.2442753165960312, 0.23023302853107452, 0.25232353806495667, 0.22888603806495667, 0.2236664891242981, 0.2422885298728943, 0.24730603396892548, 0.2716864347457886, 0.2550511956214905, 0.2869073152542114, 0.3038456439971924, 0.2571389973163605, 0.24653151631355286, 0.21760506927967072, 0.23757408559322357, 0.23370151221752167, 0.2503030598163605, 0.26131466031074524, 0.20979256927967072, 0.2693628668785095, 0.20393319427967072, 0.2735722064971924, 0.20453932881355286, 0.2481815665960312, 0.23558728396892548, 0.25619611144065857, 0.2342739701271057, 0.2178071141242981, 0.2139682173728943, 0.22393588721752167, 0.23306168615818024, 0.2354525923728943, 0.21814385056495667, 0.27865704894065857, 0.19063173234462738, 0.2717200815677643, 0.20858028531074524, 0.24067214131355286, 0.23619341850280762, 0.24003233015537262, 0.25535425543785095, 0.2607758641242981, 0.28970232605934143, 0.25232353806495667, 0.23090651631355286, 0.2383822798728943, 0.2683526277542114, 0.27185478806495667, 0.24831627309322357, 0.27306708693504333, 0.21012930572032928, 0.27010372281074524, 0.27310076355934143, 0.24723868072032928, 0.3036772608757019, 0.2683526277542114, 0.23262391984462738, 0.26033809781074524, 0.2364628165960312, 0.23952721059322357, 0.25050511956214905, 0.2566338777542114, 0.21743668615818024, 0.22107353806495667, 0.21723464131355286, 0.2617524266242981, 0.2702047526836395, 0.2717537581920624, 0.2791284918785095, 0.2421538233757019, 0.24885506927967072, 0.2682853043079376, 0.24161502718925476, 0.26427802443504333, 0.26693829894065857, 0.24346713721752167, 0.2002963423728943, 0.24481411278247833, 0.24430899322032928, 0.2207704782485962, 0.2529970407485962, 0.21895204484462738, 0.20076778531074524, 0.26013603806495667, 0.2715180516242981, 0.24754175543785095, 0.23161368072032928, 0.2363618016242981, 0.23589035868644714, 0.2502020597457886, 0.2392578125, 0.27209052443504333, 0.2236664891242981, 0.25427666306495667, 0.24946120381355286, 0.26508620381355286, 0.26710668206214905, 0.2452518790960312, 0.26050645112991333, 0.26121363043785095, 0.24201913177967072, 0.24680091440677643, 0.2664668560028076, 0.2246430516242981, 0.24626211822032928, 0.22770743072032928, 0.28657057881355286, 0.22777478396892548, 0.2442416548728943, 0.2607421875, 0.2306034415960312, 0.25730738043785095, 0.2344423532485962, 0.2844153940677643, 0.2626953125, 0.24875403940677643, 0.2461947798728943, 0.2451171875, 0.21807651221752167, 0.21049973368644714, 0.2605738043785095, 0.24484778940677643, 0.2303677201271057, 0.28077855706214905, 0.2276737540960312, 0.2713496685028076, 0.26050645112991333, 0.2782866358757019, 0.3108162581920624, 0.2547817826271057, 0.27212420105934143, 0.2555899918079376, 0.18436826765537262, 0.2804418206214905, 0.2579472064971924, 0.28764817118644714, 0.2802734375, 0.2527613043785095, 0.23474541306495667, 0.21844692528247833, 0.2547481060028076, 0.25336745381355286, 0.23178206384181976, 0.2069975733757019, 0.2187163233757019, 0.25053879618644714, 0.25259295105934143, 0.2536368668079376, 0.27771416306495667, 0.24434266984462738, 0.23009832203388214, 0.2565665543079376, 0.2735048532485962, 0.21326103806495667, 0.22868399322032928, 0.21918776631355286, 0.2820918560028076, 0.2391904592514038, 0.23131060600280762, 0.21518050134181976, 0.2590921223163605, 0.2615503668785095, 0.2353178858757019, 0.2139682173728943, 0.2589574456214905, 0.25821658968925476, 0.22306033968925476, 0.26124730706214905, 0.22609105706214905, 0.2325229048728943, 0.27771416306495667, 0.2742120027542114, 0.24063846468925476, 0.21905307471752167, 0.2333984375, 0.2676791548728943, 0.2479458451271057, 0.2020474076271057, 0.26309940218925476, 0.2293911576271057, 0.23386988043785095, 0.24542026221752167, 0.23996497690677643, 0.3145204782485962, 0.2825296223163605, 0.2432314157485962, 0.26410964131355286, 0.25649920105934143, 0.26919451355934143, 0.24764278531074524, 0.28970232605934143, 0.2834051847457886, 0.24360182881355286, 0.2930024266242981, 0.2734711766242981, 0.2382475733757019, 0.26798221468925476, 0.2921605706214905, 0.2567685842514038, 0.2481479048728943, 0.2178407907485962, 0.22881869971752167, 0.2735385298728943, 0.21817752718925476, 0.24144665896892548, 0.2675107717514038, 0.2517510652542114, 0.2770406901836395, 0.27010372281074524, 0.2921942472457886, 0.2537378668785095, 0.21821120381355286, 0.22612473368644714, 0.24346713721752167, 0.2752222418785095, 0.2859307527542114, 0.3190328776836395, 0.2411435842514038, 0.2880859375, 0.2764008641242981, 0.26414331793785095, 0.2832704782485962, 0.24467942118644714, 0.2772427201271057, 0.2615503668785095, 0.21541622281074524, 0.22147764265537262, 0.27094557881355286, 0.22407057881355286, 0.22194908559322357, 0.25350216031074524, 0.2912176847457886, 0.2432314157485962, 0.24360182881355286, 0.24158135056495667, 0.2607758641242981, 0.2639749348163605, 0.23272494971752167, 0.2589574456214905, 0.2411772608757019, 0.23259024322032928, 0.29640355706214905, 0.22908809781074524, 0.2646821141242981, 0.27485182881355286, 0.2635708451271057, 0.2714506983757019, 0.287109375, 0.2685883641242981, 0.24238954484462738, 0.26225754618644714, 0.24936018884181976, 0.2682853043079376, 0.2969423532485962, 0.2667699456214905, 0.21895204484462738, 0.25444504618644714, 0.2217133641242981, 0.24454471468925476, 0.23420663177967072, 0.26016971468925476, 0.25043776631355286, 0.23828125, 0.2461947798728943, 0.26020339131355286, 0.2352505326271057, 0.22895339131355286, 0.2898706793785095, 0.27209052443504333, 0.2819235026836395, 0.2647157907485962, 0.21056707203388214, 0.21622440218925476, 0.2625942826271057, 0.2607758641242981, 0.21945716440677643, 0.2966056168079376, 0.2726966440677643, 0.2520541548728943, 0.2491581290960312, 0.2625269293785095, 0.2314453125, 0.2903421223163605, 0.31095096468925476, 0.25528690218925476, 0.24457839131355286, 0.2372036576271057, 0.2507745027542114, 0.2432650923728943, 0.2909145951271057, 0.2600350081920624, 0.2225888967514038, 0.22343076765537262, 0.30132004618644714, 0.2295258641242981, 0.2295595407485962, 0.22888603806495667, 0.2558256983757019, 0.23686692118644714, 0.2413119673728943, 0.23690059781074524, 0.2235991358757019, 0.27003636956214905, 0.2723935842514038, 0.26720771193504333, 0.2614493668079376, 0.25855332612991333, 0.24653151631355286, 0.2665678858757019, 0.2608768939971924, 0.24548760056495667, 0.2625606060028076, 0.2724272608757019, 0.2792295217514038, 0.2561287581920624, 0.26424434781074524, 0.24592538177967072, 0.27202317118644714, 0.28266432881355286, 0.2344086766242981, 0.23097386956214905, 0.18409886956214905, 0.23491379618644714, 0.2503030598163605, 0.2393251657485962, 0.2678138315677643, 0.26525458693504333, 0.2597319483757019, 0.28199082612991333, 0.24387122690677643, 0.29333916306495667, 0.2547817826271057, 0.2520541548728943, 0.23225350677967072, 0.24932651221752167, 0.2693965435028076, 0.3126347064971924, 0.2294248342514038, 0.26596173644065857, 0.3039466440677643, 0.24632947146892548, 0.2462284415960312, 0.29451778531074524, 0.23589035868644714, 0.21036502718925476, 0.27491918206214905, 0.2479795217514038, 0.22447466850280762, 0.2912850081920624, 0.2908472418785095, 0.24986529350280762, 0.2849878668785095, 0.2947198152542114, 0.22130925953388214, 0.2186489701271057, 0.2717537581920624, 0.26424434781074524, 0.27677127718925476, 0.24073949456214905, 0.2645137310028076, 0.2060210108757019, 0.2694638967514038, 0.29360857605934143, 0.3097050189971924, 0.24676723778247833, 0.30529364943504333, 0.2871430516242981, 0.29296875, 0.22494612634181976, 0.2948208451271057, 0.2782529592514038, 0.25390625, 0.2820918560028076, 0.22501346468925476, 0.2694638967514038, 0.27124863862991333, 0.2760641276836395, 0.20474137365818024, 0.28367456793785095, 0.3106815814971924, 0.22824622690677643, 0.2516837418079376, 0.22016432881355286, 0.25037041306495667, 0.2830684185028076, 0.2665005326271057, 0.26599541306495667, 0.2531990706920624, 0.2352842092514038, 0.2629646956920624, 0.28751346468925476, 0.2889951467514038, 0.2741446793079376, 0.2646484375, 0.2762998342514038, 0.26148301362991333, 0.24296201765537262, 0.27094557881355286, 0.31691136956214905, 0.2638739347457886, 0.3229728043079376, 0.2480805516242981, 0.23885372281074524, 0.2970097064971924, 0.21319369971752167, 0.2549838423728943, 0.23760776221752167, 0.2692281901836395, 0.2609778940677643, 0.24430899322032928, 0.25720635056495667, 0.2580818831920624, 0.25245824456214905, 0.24966324865818024, 0.2624259293079376, 0.26245957612991333, 0.2600013315677643, 0.3029364347457886, 0.2334657907485962, 0.24090786278247833, 0.2858634293079376, 0.26899245381355286, 0.2638402581214905, 0.2782192826271057, 0.2849878668785095, 0.2560950815677643, 0.2635371685028076, 0.26219019293785095, 0.27579471468925476, 0.2926993668079376, 0.2795325815677643, 0.2772090435028076, 0.23326373100280762, 0.2079404592514038, 0.2892645597457886, 0.23969557881355286, 0.25367051362991333, 0.2568696141242981, 0.2657597064971924, 0.25535425543785095, 0.25249192118644714, 0.21635910868644714, 0.23397091031074524, 0.26111260056495667, 0.21999596059322357, 0.22578798234462738, 0.2627963423728943, 0.26990166306495667, 0.2813173532485962, 0.24589170515537262, 0.23949353396892548, 0.2873450815677643, 0.26714035868644714, 0.2577451467514038, 0.2727303206920624, 0.28845635056495667, 0.23178206384181976, 0.27889278531074524, 0.3173491358757019, 0.2708108723163605, 0.2977842092514038, 0.2568359375, 0.24828259646892548, 0.2830347418785095, 0.2508755326271057, 0.29828932881355286, 0.3182920217514038, 0.2918911576271057, 0.2892645597457886, 0.2531990706920624, 0.2090180516242981, 0.24575699865818024, 0.2765018939971924, 0.2577788233757019, 0.24201913177967072, 0.21619072556495667, 0.27579471468925476, 0.2675107717514038, 0.24875403940677643, 0.2725956439971924, 0.29263201355934143, 0.29946795105934143, 0.24292834103107452, 0.23504848778247833, 0.24845096468925476, 0.2951239347457886, 0.21235182881355286, 0.2795325815677643, 0.2555899918079376, 0.2605738043785095, 0.2810816168785095, 0.2775458097457886, 0.2868063151836395, 0.2551858723163605, 0.2762661576271057, 0.2580145597457886, 0.267578125, 0.3219625651836395, 0.2461274266242981, 0.26909348368644714, 0.29566270112991333, 0.2793305516242981, 0.2637392282485962, 0.30121901631355286, 0.25, 0.22184805572032928, 0.2529970407485962, 0.26831895112991333, 0.2187163233757019, 0.23585668206214905, 0.2703731060028076, 0.2882879972457886, 0.27094557881355286, 0.2548491358757019, 0.23666487634181976, 0.2462284415960312, 0.2860654592514038, 0.2782192826271057, 0.306640625, 0.30317214131355286, 0.26697197556495667, 0.27879175543785095, 0.22908809781074524, 0.2460263967514038, 0.2950565814971924, 0.22639413177967072, 0.20554956793785095, 0.28003770112991333, 0.2569032907485962, 0.2257206290960312, 0.25636449456214905, 0.2958310842514038, 0.28178879618644714, 0.2783876657485962, 0.2903421223163605, 0.27599677443504333, 0.29064521193504333, 0.2725619673728943, 0.3035088777542114, 0.2760641276836395, 0.25619611144065857, 0.27003636956214905, 0.2374057173728943, 0.302734375, 0.2908135652542114, 0.25424298644065857, 0.22518184781074524, 0.27380791306495667, 0.2832704782485962, 0.30906519293785095, 0.3024649918079376, 0.3082906901836395, 0.2459927201271057, 0.27377423644065857, 0.26212283968925476, 0.24956223368644714, 0.2653219401836395, 0.23851697146892548, 0.25464707612991333, 0.2958310842514038, 0.23959456384181976, 0.2917228043079376, 0.21726831793785095, 0.27798357605934143, 0.25033673644065857, 0.2639075815677643, 0.2961678206920624, 0.24764278531074524, 0.2951912581920624, 0.2830010652542114, 0.26821795105934143, 0.2941473722457886, 0.20649245381355286, 0.28468480706214905, 0.2774784564971924, 0.19113685190677643, 0.24821524322032928, 0.2859644293785095, 0.255859375, 0.2617861032485962, 0.28273168206214905, 0.30519261956214905, 0.24171605706214905, 0.2774784564971924, 0.271484375, 0.28515625, 0.2529633641242981, 0.25141432881355286, 0.2490234375, 0.2527276277542114, 0.2335331290960312, 0.2760978043079376, 0.2541083097457886, 0.28859105706214905, 0.3008149266242981, 0.2997036576271057, 0.267578125, 0.2913186848163605, 0.2705078125, 0.3104795217514038, 0.30435076355934143, 0.2696659564971924, 0.24922548234462738, 0.2627626657485962, 0.24087418615818024, 0.2401670217514038, 0.2667699456214905, 0.283203125, 0.2819571793079376, 0.25845232605934143, 0.2734375, 0.27872440218925476, 0.25040408968925476, 0.2858634293079376, 0.2950565814971924, 0.2810816168785095, 0.25330010056495667, 0.26208916306495667, 0.2811489701271057, 0.3049905598163605, 0.2760641276836395, 0.23710264265537262, 0.2830347418785095, 0.2639412581920624, 0.2776131331920624, 0.22090516984462738, 0.2541083097457886, 0.22329606115818024, 0.23787716031074524, 0.30037716031074524, 0.2834388315677643, 0.2609442472457886, 0.27774783968925476, 0.27101293206214905, 0.2764008641242981, 0.2431640625, 0.2627963423728943, 0.27670392394065857, 0.2892308831214905, 0.24632947146892548, 0.24639682471752167, 0.2683526277542114, 0.28852370381355286, 0.3396753668785095, 0.24548760056495667, 0.25245824456214905, 0.24868668615818024, 0.25831761956214905, 0.3108499348163605, 0.23969557881355286, 0.29037579894065857, 0.2696322798728943, 0.2556573152542114, 0.27394261956214905, 0.2471713423728943, 0.3047885298728943, 0.23575565218925476, 0.2617524266242981, 0.2825296223163605, 0.30334052443504333, 0.2512122690677643, 0.2616177201271057, 0.2850215435028076, 0.26794853806495667, 0.3221309185028076, 0.2839776277542114, 0.28475216031074524, 0.29761582612991333, 0.2967739701271057, 0.2587553858757019, 0.2646821141242981, 0.2490234375, 0.2971780598163605, 0.26323410868644714, 0.28687363862991333, 0.2578125, 0.2692618668079376, 0.28576239943504333, 0.2861328125, 0.28667160868644714, 0.2323881983757019, 0.28081223368644714, 0.3035762310028076, 0.24565598368644714, 0.24548760056495667, 0.22235317528247833, 0.2978852391242981, 0.25161638855934143, 0.29448410868644714, 0.27784886956214905, 0.27788254618644714, 0.24292834103107452, 0.3067416548728943, 0.23016567528247833, 0.26013603806495667, 0.2605401277542114, 0.26013603806495667, 0.28101426362991333, 0.24636314809322357, 0.26441270112991333, 0.2176724076271057, 0.2548828125, 0.22289197146892548, 0.3202451467514038, 0.28670528531074524, 0.30815598368644714, 0.3194369673728943, 0.27771416306495667, 0.27027207612991333, 0.3201441168785095, 0.2685210108757019, 0.3123652935028076, 0.2871767282485962, 0.29566270112991333, 0.32788926362991333, 0.28451642394065857, 0.3515288233757019, 0.2581155598163605, 0.27111396193504333, 0.2873450815677643, 0.2353515625, 0.2987270951271057, 0.3065395951271057, 0.2526266276836395, 0.2763335108757019, 0.27097925543785095, 0.2734711766242981, 0.29333916306495667, 0.2755253314971924, 0.21827855706214905, 0.2110721915960312, 0.2713159918785095, 0.2959657907485962, 0.33344557881355286, 0.3248922526836395, 0.30640488862991333, 0.23784348368644714, 0.24750807881355286, 0.3049905598163605, 0.22912175953388214, 0.27013739943504333, 0.27286502718925476, 0.2835061848163605, 0.32189521193504333, 0.3156317472457886, 0.26623114943504333, 0.3248922526836395, 0.2717874348163605, 0.3064722418785095, 0.28370824456214905, 0.25952988862991333, 0.32553204894065857, 0.2979189157485962, 0.33243533968925476, 0.27774783968925476, 0.2725619673728943, 0.2665678858757019, 0.2929350733757019, 0.2980199456214905, 0.29051050543785095, 0.28003770112991333, 0.3318628668785095, 0.2235317826271057, 0.27808457612991333, 0.2902074456214905, 0.30933457612991333, 0.3165746331214905, 0.2840449810028076, 0.31499192118644714, 0.3260371685028076, 0.28087958693504333, 0.2949555516242981, 0.24107623100280762, 0.2725619673728943]","[10.875, 9.25, 9.25, 9.375, 9.4375, 9.375, 9.3125, 9.4375, 9.5, 9.5, 9.3125, 9.4375, 9.4375, 9.5, 9.5625, 9.5, 9.625, 9.75, 9.5, 9.4375, 9.625, 9.5625, 9.5, 9.5625, 9.5, 9.5, 9.4375, 9.5625, 9.75, 9.5, 9.625, 9.625, 9.5625, 9.625, 9.6875, 9.625, 9.875, 9.9375, 9.8125, 9.875, 9.625, 9.625, 9.5625, 9.875, 10.0, 9.75, 9.625, 9.6875, 9.9375, 9.8125, 9.625, 9.6875, 9.75, 9.75, 9.6875, 10.125, 9.6875, 9.6875, 11.6875, 10.9375, 10.25, 9.875, 9.8125, 9.75, 9.625, 10.5, 10.4375, 10.375, 10.625, 10.75, 11.0, 11.3125, 10.75, 11.5, 11.1875, 11.0625, 10.375, 10.4375, 10.1875, 10.3125, 10.4375, 10.25, 10.25, 10.625, 10.0, 10.1875, 10.25, 10.1875, 10.0, 10.0, 10.375, 10.25, 9.9375, 10.3125, 10.0, 10.5, 10.4375, 10.125, 10.3125, 10.125, 10.0625, 10.1875, 10.1875, 10.0625, 9.75, 9.75, 9.6875, 9.75, 9.5625, 9.75, 9.6875, 10.125, 10.125, 10.0625, 10.1875, 10.0625, 10.1875, 9.75, 9.8125, 9.9375, 10.0625, 10.25, 10.0625, 10.1875, 10.3125, 10.25, 10.375, 9.9375, 10.3125, 10.375, 10.5, 10.125, 10.3125, 10.125, 10.25, 10.25, 10.0625, 10.0625, 10.125, 9.9375, 10.0, 10.375, 10.375, 10.1875, 10.1875, 10.1875, 10.0625, 10.375, 10.375, 10.3125, 10.0625, 10.3125, 10.0625, 10.1875, 10.1875, 10.1875, 10.375, 10.125, 10.4375, 10.375, 10.25, 10.25, 10.0625, 10.0625, 10.1875, 10.125, 10.5, 10.5, 10.3125, 10.0, 10.125, 10.375, 10.0, 9.9375, 9.9375, 10.0625, 10.0, 9.75, 10.0, 10.125, 10.3125, 10.1875, 10.125, 10.375, 10.125, 10.1875, 10.125, 10.1875, 9.9375, 10.0, 10.0625, 10.1875, 10.0, 10.0, 10.125, 10.25, 10.1875, 10.125, 10.1875, 10.1875, 10.0625, 10.0625, 10.0, 9.9375, 9.8125, 10.0, 9.75, 9.6875, 9.8125, 9.75, 9.75, 9.625, 9.6875, 9.75, 9.5, 9.625, 9.5625, 9.6875, 9.8125, 9.8125, 9.75, 9.6875, 9.8125, 9.75, 9.5625, 9.8125, 9.5625, 9.5625, 9.5625, 9.625, 9.625, 9.6875, 9.75, 9.6875, 9.75, 9.6875, 10.0, 9.875, 10.0625, 9.875, 9.8125, 9.75, 9.9375, 10.0625, 9.9375, 10.125, 9.75, 9.9375, 9.875, 10.0, 10.0625, 9.9375, 10.0, 9.9375, 10.0, 9.9375, 9.875, 10.0, 10.0, 10.0625, 10.0, 9.9375, 10.0, 9.75, 9.625, 9.625, 9.6875, 9.75, 9.625, 9.8125, 9.875, 9.875, 9.6875, 9.625, 9.75, 9.75, 9.875, 10.125, 9.875, 9.9375, 9.875, 10.125, 9.9375, 10.0, 10.0, 9.8125, 9.6875, 9.75, 9.75, 9.8125, 9.75, 9.6875, 9.5625, 9.5625, 9.5625, 9.6875, 9.6875, 9.6875, 9.875, 9.6875, 9.5625, 9.6875, 9.875, 10.0625, 10.0625, 10.0, 9.8125, 9.8125, 11.625, 10.75, 10.5625, 10.625, 10.625, 10.75, 10.6875, 10.875, 10.875, 10.625, 10.625, 10.8125, 10.9375, 11.0, 10.8125, 10.8125, 10.4375, 10.4375, 10.5, 10.3125, 10.125, 9.9375, 10.125, 10.25, 10.1875, 10.1875, 10.25, 10.125, 10.4375, 10.375, 10.25, 10.1875, 10.3125, 10.3125, 10.375, 10.4375, 10.25, 10.5625, 10.25, 10.625, 10.875, 10.6875, 10.5625, 10.1875, 10.625, 10.1875, 10.25, 10.5, 11.0625, 10.5, 10.5, 10.5625, 10.375, 10.75, 10.6875, 10.5, 10.9375, 10.375, 11.0, 10.375, 11.3125, 10.6875, 10.6875, 10.75, 11.4375, 11.5625, 11.1875, 10.6875, 10.9375, 10.75, 10.75, 11.0, 11.125, 11.125, 11.6875, 11.4375, 11.0, 11.0625, 10.75, 10.75, 11.1875, 10.75, 11.375, 11.0, 10.9375, 10.625, 11.0, 10.75, 11.125, 11.25, 11.0, 11.25, 11.125, 10.5625, 11.1875, 10.8125, 11.0, 10.875, 10.4375, 10.375, 10.5, 10.5625, 10.5625, 10.5625, 10.25, 10.25, 10.4375, 10.5, 10.375, 10.3125, 10.5, 10.375, 10.5, 10.375, 10.3125, 10.3125, 10.8125, 10.5625, 10.5625, 10.625, 10.75, 10.6875, 10.5, 10.375, 10.375, 10.375, 10.4375, 10.3125, 10.25, 10.3125, 10.4375, 10.3125, 10.25, 10.25, 10.4375, 10.25, 10.5, 10.1875, 10.25, 10.375, 10.1875, 10.125, 10.0625, 10.3125, 10.4375, 10.0625, 10.4375, 10.4375, 10.1875, 10.1875, 10.125, 10.125, 10.125, 10.125, 10.125, 10.0, 10.1875, 10.25, 10.25, 10.25, 10.125, 10.0, 10.0625, 10.125, 10.3125, 10.1875, 10.0625, 10.25, 10.1875, 10.3125, 10.125, 10.3125, 10.25, 10.125, 10.25, 10.3125, 10.25, 10.25, 10.0625, 10.125, 10.0, 10.0625, 10.0, 10.1875, 10.125, 10.125, 10.1875, 10.6875, 10.875, 10.3125, 10.625, 10.4375, 10.3125, 10.4375, 10.375, 10.5, 10.1875, 10.4375, 10.5625, 10.5, 10.0625, 10.375, 10.375, 10.5625, 10.6875, 10.4375, 10.875, 10.5, 10.5, 10.6875, 10.6875, 10.9375, 10.75, 10.875, 10.8125, 10.8125, 10.5625, 10.4375, 10.4375, 11.125, 10.8125, 10.625, 10.8125, 10.375, 10.4375, 10.375, 10.3125, 10.5, 10.75, 10.5, 10.75, 10.5625, 10.6875, 10.5, 10.4375, 10.3125, 10.5625, 10.5, 10.6875, 10.75, 10.5625, 11.0, 10.5625, 10.8125, 10.5625, 10.4375, 10.4375, 10.375, 10.1875, 10.3125, 10.5625, 10.375, 10.25, 10.9375, 11.25, 10.9375, 11.0625, 11.0, 10.8125, 10.625, 10.6875, 10.625, 10.3125, 10.6875, 11.5, 10.625, 11.5, 11.0625, 11.1875, 11.5, 10.9375, 10.625, 10.625, 11.0, 10.6875, 11.0, 10.8125, 11.625, 11.4375, 11.25, 10.625, 10.8125, 10.8125, 10.625, 10.4375, 10.75, 10.75, 10.75, 10.8125, 10.9375, 11.125, 11.1875, 11.625, 10.875, 10.375, 11.1875, 11.1875, 11.6875, 11.3125, 11.625, 11.375, 11.375, 11.0625, 10.8125, 10.5625, 10.6875, 10.6875, 10.9375, 10.8125, 10.75, 10.5625, 11.0, 10.9375, 10.75, 10.625, 10.875, 11.375, 10.625, 10.75, 10.875, 10.9375, 11.0, 10.9375, 10.75, 10.8125, 11.0625, 10.875, 11.0, 10.9375, 10.9375, 10.875, 10.9375, 11.1875, 11.125, 11.4375, 11.3125, 11.0, 10.9375, 11.0, 10.625, 10.9375, 11.3125, 10.8125, 10.5625, 10.25, 10.625, 10.8125, 11.0, 11.0625, 11.0, 11.0625, 11.1875, 10.8125, 11.5625, 11.625, 11.3125, 10.6875, 11.25, 11.0625, 11.4375, 10.6875, 11.375, 11.8125, 11.3125, 11.5625, 12.4375, 11.125, 11.3125, 11.6875, 11.6875, 11.625, 11.75, 12.0625, 11.0, 12.375, 12.25, 11.1875, 10.875, 11.0, 11.3125, 10.625, 10.375, 10.4375, 10.375, 10.625, 10.5625, 10.6875, 10.5625, 10.625, 11.125, 10.5, 10.3125, 10.3125, 10.125, 10.25, 10.5, 10.375, 10.5, 10.3125, 10.625, 10.3125, 10.625, 10.625, 10.625, 10.75, 10.75, 10.8125, 11.5, 11.25, 11.25, 10.9375, 10.625, 10.8125, 11.25, 11.25, 11.5625, 11.5625, 11.875, 11.8125, 11.75, 11.1875, 11.4375, 11.0625, 11.625, 11.0, 11.0625, 11.1875, 10.8125, 11.0625, 11.0625, 10.5625, 10.625, 10.375, 10.375, 10.6875, 11.0625, 10.75, 10.6875, 10.75, 10.75, 10.8125, 11.0, 11.0, 11.9375, 11.125, 11.125, 11.375, 11.4375, 11.1875, 10.6875, 10.6875, 10.75, 10.75, 10.5, 10.625, 11.0, 10.875, 11.0625, 10.75, 10.6875, 10.8125, 10.8125, 10.9375, 10.6875, 11.3125, 10.4375, 10.625, 10.375, 10.4375, 10.5, 10.625, 10.4375, 10.8125, 10.625, 10.875, 10.625, 10.75, 11.4375, 11.625, 11.1875, 11.0625, 11.375, 11.5625, 11.5625, 11.125, 11.25, 10.9375, 10.8125, 11.375, 11.9375, 12.5, 11.5, 11.3125, 11.0, 11.125, 11.375, 11.5625, 11.625, 11.5, 12.375, 11.9375, 11.875, 12.25, 12.5, 12.1875, 11.8125, 11.875, 12.0625, 12.5, 11.3125, 11.875, 11.9375, 12.125, 12.125, 12.5, 12.1875, 12.0, 12.5625, 11.8125, 12.0, 12.125, 11.75, 11.4375, 11.875, 11.6875, 11.375, 12.1875, 11.25, 11.4375, 11.25, 12.25, 11.4375, 11.6875, 11.5625, 11.75, 11.875, 11.875, 11.625, 11.375, 11.75, 11.6875, 12.0, 12.125, 11.8125, 11.4375, 11.5, 11.625, 11.8125, 11.4375, 11.0, 11.75, 11.9375, 11.1875, 11.8125, 12.125, 11.9375, 12.0625, 12.125, 12.0625, 12.0625, 12.5625, 11.9375, 11.5625, 11.0, 11.625, 11.125, 11.9375, 11.8125, 11.25, 11.375, 11.5625, 11.25, 11.8125, 11.6875, 12.4375, 12.125, 12.375, 12.4375, 12.125, 12.5, 11.875, 11.9375, 11.875, 10.9375, 11.9375, 11.3125, 11.8125, 11.8125, 12.0, 12.5, 11.4375, 11.625, 11.625, 11.5, 11.625, 11.0, 12.0, 12.25, 11.5625, 11.4375, 11.5625, 11.6875, 11.25, 11.4375, 11.6875, 11.1875, 11.5625, 11.5, 11.875, 11.0, 11.5625, 12.1875, 11.3125, 10.875, 11.5, 11.4375, 11.8125, 12.0, 11.75, 11.75, 11.8125, 12.5, 12.375, 12.25, 11.8125, 11.4375, 11.75, 11.375, 12.125, 11.5625, 11.625, 12.0625, 11.3125, 11.5625, 11.9375, 11.5, 12.125, 12.375, 12.0, 12.0, 11.4375, 12.0625, 11.9375, 11.5, 11.6875, 11.375, 11.5, 11.75, 11.75, 11.6875, 11.4375, 11.375, 11.625, 12.625, 12.125, 12.0, 12.375, 12.0625, 11.5625, 11.75, 12.3125, 12.6875, 11.9375, 12.0625, 11.8125, 12.25, 12.625, 11.9375, 11.6875, 11.3125, 12.875, 13.625, 12.625, 12.5, 13.125, 12.875, 12.875, 12.125, 13.0625, 11.875, 12.1875, 12.8125, 12.9375, 12.5625, 12.375, 12.25, 12.3125, 12.875, 11.8125, 12.25, 12.4375, 12.6875, 11.875, 11.875, 12.125, 12.1875, 12.0625, 12.5, 12.125, 12.125, 12.125, 12.5625, 13.1875, 12.625, 13.8125, 14.0625, 12.9375, 12.375, 12.5, 13.875, 12.25, 13.8125, 12.9375, 13.3125, 12.8125, 11.125, 10.5625, 10.625, 10.9375, 10.8125, 10.8125, 10.875, 11.4375, 10.9375, 11.125, 10.9375, 11.5, 11.5625, 11.5625, 11.75, 11.25, 11.5, 12.0, 11.4375, 11.75, 11.9375, 12.0625, 12.0, 12.0, 12.5625, 12.0625, 12.125, 12.0, 11.875, 12.1875, 12.1875, 11.6875, 11.75, 12.0, 11.75, 12.625, 12.0625, 11.75, 12.0, 12.4375, 11.8125, 12.5, 12.375, 12.625, 11.75, 12.25, 12.1875, 11.6875, 11.9375, 11.9375, 12.4375, 12.25, 12.625, 11.625, 12.4375, 12.25, 12.5625, 12.1875, 12.0, 12.0, 12.1875, 11.9375, 11.8125, 11.75, 11.6875, 12.0, 12.625, 12.25, 12.5625, 12.625, 11.5, 12.375, 12.1875, 12.5625, 12.5, 12.3125, 12.75, 12.6875, 12.0625, 12.0625, 11.875, 12.25]","[52992.0, 10432.0, 10432.0, 11840.0, 12544.0, 11840.0, 11072.0, 12544.0, 13376.0, 13376.0, 11072.0, 12544.0, 12544.0, 13376.0, 14272.0, 13376.0, 15168.0, 17152.0, 13376.0, 12544.0, 15168.0, 14272.0, 13376.0, 14272.0, 13376.0, 13376.0, 12544.0, 14272.0, 17152.0, 13376.0, 15168.0, 15168.0, 14272.0, 15168.0, 16128.0, 15168.0, 19456.0, 20736.0, 18304.0, 19456.0, 15168.0, 15168.0, 14272.0, 19456.0, 22016.0, 17152.0, 15168.0, 16128.0, 20736.0, 18304.0, 15168.0, 16128.0, 17152.0, 17152.0, 16128.0, 24960.0, 16128.0, 16128.0, 119296.0, 56320.0, 28288.0, 19456.0, 18304.0, 17152.0, 15168.0, 36352.0, 34304.0, 32128.0, 41216.0, 46592.0, 59904.0, 81920.0, 46592.0, 98816.0, 72192.0, 63744.0, 32128.0, 34304.0, 26624.0, 30208.0, 34304.0, 28288.0, 28288.0, 41216.0, 22016.0, 26624.0, 28288.0, 26624.0, 22016.0, 22016.0, 32128.0, 28288.0, 20736.0, 30208.0, 22016.0, 36352.0, 34304.0, 24960.0, 30208.0, 24960.0, 23424.0, 26624.0, 26624.0, 23424.0, 17152.0, 17152.0, 16128.0, 17152.0, 14272.0, 17152.0, 16128.0, 24960.0, 24960.0, 23424.0, 26624.0, 23424.0, 26624.0, 17152.0, 18304.0, 20736.0, 23424.0, 28288.0, 23424.0, 26624.0, 30208.0, 28288.0, 32128.0, 20736.0, 30208.0, 32128.0, 36352.0, 24960.0, 30208.0, 24960.0, 28288.0, 28288.0, 23424.0, 23424.0, 24960.0, 20736.0, 22016.0, 32128.0, 32128.0, 26624.0, 26624.0, 26624.0, 23424.0, 32128.0, 32128.0, 30208.0, 23424.0, 30208.0, 23424.0, 26624.0, 26624.0, 26624.0, 32128.0, 24960.0, 34304.0, 32128.0, 28288.0, 28288.0, 23424.0, 23424.0, 26624.0, 24960.0, 36352.0, 36352.0, 30208.0, 22016.0, 24960.0, 32128.0, 22016.0, 20736.0, 20736.0, 23424.0, 22016.0, 17152.0, 22016.0, 24960.0, 30208.0, 26624.0, 24960.0, 32128.0, 24960.0, 26624.0, 24960.0, 26624.0, 20736.0, 22016.0, 23424.0, 26624.0, 22016.0, 22016.0, 24960.0, 28288.0, 26624.0, 24960.0, 26624.0, 26624.0, 23424.0, 23424.0, 22016.0, 20736.0, 18304.0, 22016.0, 17152.0, 16128.0, 18304.0, 17152.0, 17152.0, 15168.0, 16128.0, 17152.0, 13376.0, 15168.0, 14272.0, 16128.0, 18304.0, 18304.0, 17152.0, 16128.0, 18304.0, 17152.0, 14272.0, 18304.0, 14272.0, 14272.0, 14272.0, 15168.0, 15168.0, 16128.0, 17152.0, 16128.0, 17152.0, 16128.0, 22016.0, 19456.0, 23424.0, 19456.0, 18304.0, 17152.0, 20736.0, 23424.0, 20736.0, 24960.0, 17152.0, 20736.0, 19456.0, 22016.0, 23424.0, 20736.0, 22016.0, 20736.0, 22016.0, 20736.0, 19456.0, 22016.0, 22016.0, 23424.0, 22016.0, 20736.0, 22016.0, 17152.0, 15168.0, 15168.0, 16128.0, 17152.0, 15168.0, 18304.0, 19456.0, 19456.0, 16128.0, 15168.0, 17152.0, 17152.0, 19456.0, 24960.0, 19456.0, 20736.0, 19456.0, 24960.0, 20736.0, 22016.0, 22016.0, 18304.0, 16128.0, 17152.0, 17152.0, 18304.0, 17152.0, 16128.0, 14272.0, 14272.0, 14272.0, 16128.0, 16128.0, 16128.0, 19456.0, 16128.0, 14272.0, 16128.0, 19456.0, 23424.0, 23424.0, 22016.0, 18304.0, 18304.0, 112128.0, 46592.0, 38656.0, 41216.0, 41216.0, 46592.0, 43776.0, 52992.0, 52992.0, 41216.0, 41216.0, 49664.0, 56320.0, 59904.0, 49664.0, 49664.0, 34304.0, 34304.0, 36352.0, 30208.0, 24960.0, 20736.0, 24960.0, 28288.0, 26624.0, 26624.0, 28288.0, 24960.0, 34304.0, 32128.0, 28288.0, 26624.0, 30208.0, 30208.0, 32128.0, 34304.0, 28288.0, 38656.0, 28288.0, 41216.0, 52992.0, 43776.0, 38656.0, 26624.0, 41216.0, 26624.0, 28288.0, 36352.0, 63744.0, 36352.0, 36352.0, 38656.0, 32128.0, 46592.0, 43776.0, 36352.0, 56320.0, 32128.0, 59904.0, 32128.0, 81920.0, 43776.0, 43776.0, 46592.0, 92672.0, 105472.0, 72192.0, 43776.0, 56320.0, 46592.0, 46592.0, 59904.0, 68096.0, 68096.0, 119296.0, 92672.0, 59904.0, 63744.0, 46592.0, 46592.0, 72192.0, 46592.0, 87040.0, 59904.0, 56320.0, 41216.0, 59904.0, 46592.0, 68096.0, 76800.0, 59904.0, 76800.0, 68096.0, 38656.0, 72192.0, 49664.0, 59904.0, 52992.0, 34304.0, 32128.0, 36352.0, 38656.0, 38656.0, 38656.0, 28288.0, 28288.0, 34304.0, 36352.0, 32128.0, 30208.0, 36352.0, 32128.0, 36352.0, 32128.0, 30208.0, 30208.0, 49664.0, 38656.0, 38656.0, 41216.0, 46592.0, 43776.0, 36352.0, 32128.0, 32128.0, 32128.0, 34304.0, 30208.0, 28288.0, 30208.0, 34304.0, 30208.0, 28288.0, 28288.0, 34304.0, 28288.0, 36352.0, 26624.0, 28288.0, 32128.0, 26624.0, 24960.0, 23424.0, 30208.0, 34304.0, 23424.0, 34304.0, 34304.0, 26624.0, 26624.0, 24960.0, 24960.0, 24960.0, 24960.0, 24960.0, 22016.0, 26624.0, 28288.0, 28288.0, 28288.0, 24960.0, 22016.0, 23424.0, 24960.0, 30208.0, 26624.0, 23424.0, 28288.0, 26624.0, 30208.0, 24960.0, 30208.0, 28288.0, 24960.0, 28288.0, 30208.0, 28288.0, 28288.0, 23424.0, 24960.0, 22016.0, 23424.0, 22016.0, 26624.0, 24960.0, 24960.0, 26624.0, 43776.0, 52992.0, 30208.0, 41216.0, 34304.0, 30208.0, 34304.0, 32128.0, 36352.0, 26624.0, 34304.0, 38656.0, 36352.0, 23424.0, 32128.0, 32128.0, 38656.0, 43776.0, 34304.0, 52992.0, 36352.0, 36352.0, 43776.0, 43776.0, 56320.0, 46592.0, 52992.0, 49664.0, 49664.0, 38656.0, 34304.0, 34304.0, 68096.0, 49664.0, 41216.0, 49664.0, 32128.0, 34304.0, 32128.0, 30208.0, 36352.0, 46592.0, 36352.0, 46592.0, 38656.0, 43776.0, 36352.0, 34304.0, 30208.0, 38656.0, 36352.0, 43776.0, 46592.0, 38656.0, 59904.0, 38656.0, 49664.0, 38656.0, 34304.0, 34304.0, 32128.0, 26624.0, 30208.0, 38656.0, 32128.0, 28288.0, 56320.0, 76800.0, 56320.0, 63744.0, 59904.0, 49664.0, 41216.0, 43776.0, 41216.0, 30208.0, 43776.0, 98816.0, 41216.0, 98816.0, 63744.0, 72192.0, 98816.0, 56320.0, 41216.0, 41216.0, 59904.0, 43776.0, 59904.0, 49664.0, 112128.0, 92672.0, 76800.0, 41216.0, 49664.0, 49664.0, 41216.0, 34304.0, 46592.0, 46592.0, 46592.0, 49664.0, 56320.0, 68096.0, 72192.0, 112128.0, 52992.0, 32128.0, 72192.0, 72192.0, 119296.0, 81920.0, 112128.0, 87040.0, 87040.0, 63744.0, 49664.0, 38656.0, 43776.0, 43776.0, 56320.0, 49664.0, 46592.0, 38656.0, 59904.0, 56320.0, 46592.0, 41216.0, 52992.0, 87040.0, 41216.0, 46592.0, 52992.0, 56320.0, 59904.0, 56320.0, 46592.0, 49664.0, 63744.0, 52992.0, 59904.0, 56320.0, 56320.0, 52992.0, 56320.0, 72192.0, 68096.0, 92672.0, 81920.0, 59904.0, 56320.0, 59904.0, 41216.0, 56320.0, 81920.0, 49664.0, 38656.0, 28288.0, 41216.0, 49664.0, 59904.0, 63744.0, 59904.0, 63744.0, 72192.0, 49664.0, 105472.0, 112128.0, 81920.0, 43776.0, 76800.0, 63744.0, 92672.0, 43776.0, 87040.0, 135168.0, 81920.0, 105472.0, 252928.0, 68096.0, 81920.0, 119296.0, 119296.0, 112128.0, 126976.0, 174080.0, 59904.0, 237568.0, 209920.0, 72192.0, 52992.0, 59904.0, 81920.0, 41216.0, 32128.0, 34304.0, 32128.0, 41216.0, 38656.0, 43776.0, 38656.0, 41216.0, 68096.0, 36352.0, 30208.0, 30208.0, 24960.0, 28288.0, 36352.0, 32128.0, 36352.0, 30208.0, 41216.0, 30208.0, 41216.0, 41216.0, 41216.0, 46592.0, 46592.0, 49664.0, 98816.0, 76800.0, 76800.0, 56320.0, 41216.0, 49664.0, 76800.0, 76800.0, 105472.0, 105472.0, 144384.0, 135168.0, 126976.0, 72192.0, 92672.0, 63744.0, 112128.0, 59904.0, 63744.0, 72192.0, 49664.0, 63744.0, 63744.0, 38656.0, 41216.0, 32128.0, 32128.0, 43776.0, 63744.0, 46592.0, 43776.0, 46592.0, 46592.0, 49664.0, 59904.0, 59904.0, 153600.0, 68096.0, 68096.0, 87040.0, 92672.0, 72192.0, 43776.0, 43776.0, 46592.0, 46592.0, 36352.0, 41216.0, 59904.0, 52992.0, 63744.0, 46592.0, 43776.0, 49664.0, 49664.0, 56320.0, 43776.0, 81920.0, 34304.0, 41216.0, 32128.0, 34304.0, 36352.0, 41216.0, 34304.0, 49664.0, 41216.0, 52992.0, 41216.0, 46592.0, 92672.0, 112128.0, 72192.0, 63744.0, 87040.0, 105472.0, 105472.0, 68096.0, 76800.0, 56320.0, 49664.0, 87040.0, 153600.0, 268288.0, 98816.0, 81920.0, 59904.0, 68096.0, 87040.0, 105472.0, 112128.0, 98816.0, 237568.0, 153600.0, 144384.0, 209920.0, 268288.0, 196608.0, 135168.0, 144384.0, 174080.0, 268288.0, 81920.0, 144384.0, 153600.0, 184320.0, 184320.0, 268288.0, 196608.0, 162816.0, 286720.0, 135168.0, 162816.0, 184320.0, 126976.0, 92672.0, 144384.0, 119296.0, 87040.0, 196608.0, 76800.0, 92672.0, 76800.0, 209920.0, 92672.0, 119296.0, 105472.0, 126976.0, 144384.0, 144384.0, 112128.0, 87040.0, 126976.0, 119296.0, 162816.0, 184320.0, 135168.0, 92672.0, 98816.0, 112128.0, 135168.0, 92672.0, 59904.0, 126976.0, 153600.0, 72192.0, 135168.0, 184320.0, 153600.0, 174080.0, 184320.0, 174080.0, 174080.0, 286720.0, 153600.0, 105472.0, 59904.0, 112128.0, 68096.0, 153600.0, 135168.0, 76800.0, 87040.0, 105472.0, 76800.0, 135168.0, 119296.0, 252928.0, 184320.0, 237568.0, 252928.0, 184320.0, 268288.0, 144384.0, 153600.0, 144384.0, 56320.0, 153600.0, 81920.0, 135168.0, 135168.0, 162816.0, 268288.0, 92672.0, 112128.0, 112128.0, 98816.0, 112128.0, 59904.0, 162816.0, 209920.0, 105472.0, 92672.0, 105472.0, 119296.0, 76800.0, 92672.0, 119296.0, 72192.0, 105472.0, 98816.0, 144384.0, 59904.0, 105472.0, 196608.0, 81920.0, 52992.0, 98816.0, 92672.0, 135168.0, 162816.0, 126976.0, 126976.0, 135168.0, 268288.0, 237568.0, 209920.0, 135168.0, 92672.0, 126976.0, 87040.0, 184320.0, 105472.0, 112128.0, 174080.0, 81920.0, 105472.0, 153600.0, 98816.0, 184320.0, 237568.0, 162816.0, 162816.0, 92672.0, 174080.0, 153600.0, 98816.0, 119296.0, 87040.0, 98816.0, 126976.0, 126976.0, 119296.0, 92672.0, 87040.0, 112128.0, 305152.0, 184320.0, 162816.0, 237568.0, 174080.0, 105472.0, 126976.0, 223232.0, 323584.0, 153600.0, 174080.0, 135168.0, 209920.0, 305152.0, 153600.0, 119296.0, 81920.0, 391168.0, 827392.0, 305152.0, 268288.0, 501760.0, 391168.0, 391168.0, 184320.0, 471040.0, 144384.0, 196608.0, 366592.0, 415744.0, 286720.0, 237568.0, 209920.0, 223232.0, 391168.0, 135168.0, 209920.0, 252928.0, 323584.0, 144384.0, 144384.0, 184320.0, 196608.0, 174080.0, 268288.0, 184320.0, 184320.0, 184320.0, 286720.0, 536576.0, 305152.0, 999424.0, 1286144.0, 415744.0, 237568.0, 268288.0, 1064960.0, 209920.0, 999424.0, 415744.0, 606208.0, 366592.0, 68096.0, 38656.0, 41216.0, 56320.0, 49664.0, 49664.0, 52992.0, 92672.0, 56320.0, 68096.0, 56320.0, 98816.0, 105472.0, 105472.0, 126976.0, 76800.0, 98816.0, 162816.0, 92672.0, 126976.0, 153600.0, 174080.0, 162816.0, 162816.0, 286720.0, 174080.0, 184320.0, 162816.0, 144384.0, 196608.0, 196608.0, 119296.0, 126976.0, 162816.0, 126976.0, 305152.0, 174080.0, 126976.0, 162816.0, 252928.0, 135168.0, 268288.0, 237568.0, 305152.0, 126976.0, 209920.0, 196608.0, 119296.0, 153600.0, 153600.0, 252928.0, 209920.0, 305152.0, 112128.0, 252928.0, 209920.0, 286720.0, 196608.0, 162816.0, 162816.0, 196608.0, 153600.0, 135168.0, 126976.0, 119296.0, 162816.0, 305152.0, 209920.0, 286720.0, 305152.0, 98816.0, 237568.0, 196608.0, 286720.0, 268288.0, 223232.0, 346112.0, 323584.0, 174080.0, 174080.0, 144384.0, 209920.0]","[10.875, 9.3125, 9.25, 9.375, 9.375, 9.25, 9.25, 9.375, 9.3125, 9.3125, 9.1875, 9.3125, 9.3125, 9.375, 9.3125, 9.3125, 9.4375, 9.375, 9.375, 9.375, 9.5, 9.4375, 9.3125, 9.4375, 9.4375, 9.3125, 9.375, 9.375, 9.5625, 9.375, 9.3125, 9.375, 9.4375, 9.4375, 9.5, 9.4375, 9.5, 9.5, 9.4375, 9.5, 9.4375, 9.4375, 9.3125, 9.5, 9.5625, 9.4375, 9.3125, 9.375, 9.5, 9.4375, 9.3125, 9.5, 9.5, 9.4375, 9.5, 9.625, 9.4375, 9.375, 9.5, 9.5625, 9.4375, 9.5, 9.4375, 9.5625, 9.4375, 9.5625, 9.5, 9.625, 9.5, 9.625, 9.5625, 9.5625, 9.375, 9.5, 9.6875, 10.0625, 9.5, 9.625, 9.625, 9.5, 9.625, 9.5625, 9.5625, 9.5, 9.5, 9.5, 9.5625, 9.4375, 9.5, 9.5, 9.625, 9.5625, 9.5, 9.5625, 9.4375, 9.875, 9.5625, 9.5625, 9.5625, 9.6875, 9.5625, 9.5, 9.5, 9.625, 9.5625, 9.75, 9.6875, 9.75, 9.625, 9.75, 9.5, 9.625, 9.5, 9.5, 9.6875, 9.5625, 9.375, 9.3125, 9.3125, 9.375, 9.375, 9.375, 9.3125, 9.4375, 9.375, 9.5, 9.4375, 9.3125, 9.5625, 9.625, 9.625, 9.375, 9.4375, 9.4375, 9.5625, 9.625, 9.5625, 9.5, 9.5625, 9.4375, 9.5, 9.625, 9.625, 9.5625, 9.4375, 9.5625, 9.4375, 9.625, 9.5, 9.875, 9.625, 9.5, 9.5, 9.6875, 9.625, 9.5625, 9.75, 9.5, 9.625, 9.625, 9.5, 9.625, 9.4375, 9.4375, 9.4375, 9.4375, 9.5625, 9.5, 9.625, 9.375, 9.4375, 9.625, 9.4375, 9.3125, 9.375, 9.5625, 9.5, 9.1875, 9.4375, 9.4375, 9.5625, 9.5, 9.375, 9.625, 9.5625, 9.6875, 9.5625, 9.5625, 9.4375, 9.5, 9.625, 9.6875, 9.375, 9.375, 9.4375, 9.5, 9.5, 9.5625, 9.6875, 9.625, 9.5625, 9.5625, 9.5625, 9.625, 9.3125, 9.4375, 9.4375, 9.375, 9.5, 9.4375, 9.4375, 9.375, 9.5, 9.5, 9.3125, 9.4375, 9.4375, 9.375, 9.1875, 9.375, 9.4375, 9.3125, 9.5, 9.25, 9.25, 9.5, 9.4375, 9.3125, 9.375, 9.3125, 9.25, 9.3125, 9.3125, 9.375, 9.4375, 9.4375, 9.375, 9.25, 9.5, 9.25, 9.375, 9.3125, 9.3125, 9.3125, 9.25, 9.5, 9.3125, 9.3125, 9.25, 9.5, 9.5625, 9.375, 9.5, 9.4375, 9.6875, 9.625, 9.5, 9.625, 9.625, 9.6875, 9.625, 9.5, 9.6875, 9.5, 9.4375, 9.5, 9.5, 9.5625, 9.5, 9.5, 9.4375, 9.375, 9.375, 9.4375, 9.4375, 9.5, 9.5, 9.75, 9.625, 9.5625, 9.5625, 9.6875, 9.5625, 9.5, 9.5625, 9.5, 9.4375, 9.4375, 9.5, 9.5, 9.4375, 9.5, 9.375, 9.375, 9.4375, 9.4375, 9.375, 9.375, 9.625, 9.4375, 9.375, 9.375, 9.4375, 9.5625, 9.5, 9.625, 9.4375, 9.4375, 9.5, 9.3125, 9.3125, 9.5, 9.3125, 9.25, 9.25, 9.3125, 9.125, 9.0625, 9.3125, 9.4375, 9.5, 9.375, 9.3125, 9.25, 9.125, 9.3125, 9.4375, 9.4375, 9.375, 9.1875, 9.25, 9.3125, 9.375, 9.3125, 9.3125, 9.1875, 9.3125, 9.25, 9.25, 9.3125, 9.3125, 9.375, 9.4375, 9.625, 9.625, 9.625, 9.4375, 9.625, 9.5625, 9.6875, 9.5625, 9.5, 9.5625, 9.3125, 9.4375, 9.4375, 9.75, 9.5625, 9.5625, 9.5, 9.375, 9.625, 9.75, 9.5, 9.6875, 9.5, 9.75, 9.4375, 10.0, 9.6875, 9.5625, 9.5625, 9.8125, 9.9375, 9.8125, 9.625, 9.6875, 9.4375, 9.5, 9.5, 9.375, 9.3125, 9.625, 9.5625, 9.375, 9.5, 9.5, 9.6875, 9.875, 9.5, 9.75, 9.8125, 10.0625, 9.9375, 9.8125, 9.875, 9.9375, 9.8125, 9.5, 9.6875, 9.75, 9.4375, 9.875, 9.8125, 9.8125, 9.8125, 9.5625, 9.6875, 9.625, 9.625, 9.625, 9.625, 9.4375, 9.625, 9.5625, 9.625, 9.5, 9.4375, 9.5625, 9.375, 9.5, 9.5625, 9.4375, 9.5625, 9.8125, 9.6875, 9.625, 9.6875, 9.8125, 10.0, 9.625, 9.5625, 9.625, 9.625, 9.6875, 9.5625, 9.5, 9.5, 9.875, 9.75, 9.5625, 9.625, 9.6875, 9.5, 9.625, 9.375, 9.5, 9.625, 9.5, 9.375, 9.3125, 9.4375, 9.625, 9.375, 9.625, 9.625, 9.5625, 9.5625, 9.5, 9.4375, 9.4375, 9.4375, 9.375, 9.4375, 9.5625, 9.6875, 9.625, 9.625, 9.4375, 9.375, 9.5, 9.5625, 9.6875, 9.6875, 9.5, 9.6875, 9.6875, 9.6875, 9.4375, 9.625, 9.5625, 9.625, 9.8125, 9.75, 9.6875, 9.625, 9.5, 9.625, 9.4375, 9.5, 9.5, 9.625, 9.4375, 9.5, 9.4375, 9.6875, 9.8125, 9.5, 9.5625, 9.6875, 9.4375, 9.5625, 9.4375, 9.5625, 9.375, 9.6875, 9.8125, 9.6875, 9.4375, 9.5, 9.5, 9.625, 9.625, 9.375, 9.6875, 9.4375, 9.4375, 9.625, 9.5625, 9.625, 9.625, 9.6875, 9.6875, 9.75, 9.4375, 9.4375, 9.5, 9.6875, 9.5, 9.625, 9.625, 9.5, 9.625, 9.5625, 9.5625, 9.6875, 9.8125, 9.625, 9.75, 9.5625, 9.5, 9.75, 9.5625, 9.5, 9.5625, 9.5625, 9.625, 9.6875, 9.8125, 10.4375, 10.0625, 10.125, 9.6875, 9.625, 9.6875, 9.5625, 9.625, 9.75, 9.6875, 9.625, 9.4375, 9.625, 9.8125, 9.625, 9.8125, 9.5, 9.5, 9.4375, 9.6875, 9.625, 9.5, 9.5625, 9.875, 9.75, 9.9375, 9.6875, 9.75, 9.75, 9.6875, 9.625, 9.6875, 9.9375, 9.625, 9.75, 9.5625, 9.9375, 9.8125, 9.875, 9.75, 9.875, 10.0625, 9.8125, 9.625, 9.9375, 9.8125, 10.0, 9.75, 10.0, 9.8125, 9.8125, 10.125, 9.9375, 9.9375, 10.0625, 10.25, 9.9375, 9.8125, 9.8125, 9.875, 10.1875, 9.625, 9.5, 9.6875, 9.625, 9.75, 9.875, 9.75, 9.6875, 9.625, 9.6875, 9.6875, 9.5625, 9.6875, 9.8125, 9.875, 9.5625, 9.75, 9.75, 9.625, 9.8125, 9.75, 9.5625, 9.875, 10.0, 10.125, 10.0, 10.0, 10.0625, 10.125, 9.9375, 10.1875, 10.1875, 10.1875, 10.0625, 10.1875, 10.1875, 10.0625, 9.9375, 10.1875, 10.3125, 10.0, 9.8125, 9.8125, 10.0, 10.0, 10.0, 10.0, 9.8125, 9.875, 10.125, 10.0625, 10.3125, 10.4375, 10.3125, 10.0625, 10.4375, 10.0625, 10.125, 10.25, 10.3125, 10.3125, 10.1875, 10.0625, 10.0625, 9.8125, 10.0625, 10.0, 10.1875, 10.3125, 10.25, 10.125, 9.75, 10.0625, 10.0, 9.75, 9.6875, 9.6875, 9.8125, 9.5625, 9.4375, 9.375, 9.5625, 9.6875, 9.5, 9.625, 9.625, 9.625, 10.0, 9.75, 9.5625, 9.5625, 9.4375, 9.625, 9.5625, 9.5, 9.6875, 9.625, 9.6875, 9.5625, 9.6875, 9.625, 9.75, 9.5625, 9.75, 9.8125, 9.8125, 9.8125, 9.9375, 9.8125, 9.625, 9.625, 9.875, 9.9375, 10.125, 10.0625, 10.0, 9.875, 9.9375, 9.625, 9.75, 9.625, 9.8125, 9.625, 9.6875, 9.75, 9.5, 9.625, 9.5, 9.375, 9.375, 9.375, 9.5625, 9.625, 10.0, 9.75, 9.75, 9.8125, 9.625, 9.625, 9.8125, 9.8125, 10.0625, 9.75, 10.0, 10.0, 10.0, 9.9375, 9.75, 9.6875, 9.8125, 9.75, 9.5625, 9.5625, 9.9375, 9.875, 9.9375, 9.875, 9.75, 9.8125, 9.8125, 9.875, 9.625, 10.9375, 10.0625, 10.0, 9.9375, 9.875, 9.9375, 10.0625, 9.9375, 10.1875, 10.0, 10.1875, 10.0, 10.125, 10.375, 10.4375, 9.875, 10.0625, 10.0625, 10.25, 10.4375, 10.25, 10.25, 9.625, 9.5625, 9.8125, 10.1875, 10.25, 9.9375, 9.875, 9.875, 9.9375, 10.0, 10.125, 10.375, 10.4375, 10.25, 10.25, 10.25, 10.5, 10.5625, 10.5, 10.25, 10.1875, 10.5, 10.5625, 10.375, 10.5, 10.5, 10.5625, 10.8125, 10.75, 10.375, 10.1875, 10.5625, 10.4375, 10.3125, 10.4375, 10.375, 10.0, 9.875, 9.6875, 9.6875, 9.9375, 9.8125, 9.8125, 9.8125, 10.1875, 9.9375, 9.8125, 9.8125, 10.0625, 10.125, 10.0625, 9.9375, 10.1875, 10.1875, 10.1875, 10.1875, 10.25, 10.3125, 10.125, 10.0625, 10.0625, 10.0, 10.0625, 9.6875, 10.125, 10.1875, 10.0, 9.9375, 9.9375, 9.8125, 9.875, 9.875, 9.875, 10.0, 10.6875, 10.0625, 9.75, 9.8125, 10.0, 10.0, 10.1875, 10.4375, 10.0, 10.1875, 10.0, 10.0, 10.1875, 10.0625, 10.25, 10.0625, 10.1875, 10.125, 10.25, 10.0625, 10.0625, 9.9375, 9.875, 9.75, 10.0, 10.0625, 10.4375, 10.25, 10.3125, 10.125, 9.75, 9.8125, 9.875, 9.9375, 9.9375, 9.8125, 10.0, 10.5, 10.75, 10.3125, 10.25, 10.375, 10.125, 10.1875, 10.125, 9.875, 10.1875, 10.0, 9.8125, 9.75, 9.8125, 10.125, 9.875, 9.625, 9.875, 9.875, 10.125, 10.25, 10.0625, 10.0625, 10.125, 10.0625, 10.125, 10.0625, 10.0, 10.0, 9.9375, 10.0625, 10.375, 9.9375, 10.0, 10.125, 9.875, 10.5, 10.1875, 10.6875, 10.8125, 10.625, 10.75, 10.375, 10.125, 10.25, 10.25, 10.4375, 10.1875, 9.875, 10.0625, 10.125, 10.25, 10.0, 9.9375, 9.875, 10.0625, 10.9375, 11.625, 11.0, 11.1875, 11.1875, 10.875, 10.8125, 11.0, 11.25, 11.25, 11.5, 11.25, 11.375, 11.375, 11.25, 10.9375, 10.9375, 11.75, 12.375, 12.0625, 12.0625, 11.75, 11.625, 11.4375, 11.25, 11.5, 11.4375, 11.375, 11.3125, 11.625, 11.75, 11.25, 11.1875, 11.25, 11.125, 11.0, 11.0625, 11.5, 11.375, 10.875, 10.8125, 10.875, 11.25, 11.375, 11.0625, 11.125, 11.0625, 10.9375, 11.125, 11.625, 12.375, 12.375, 12.125, 11.375, 11.25, 11.0625, 11.0, 11.0625, 11.125, 11.1875, 11.3125, 11.25, 9.6875, 9.5, 9.5, 9.8125, 9.5625, 9.625, 9.6875, 9.9375, 9.75, 9.75, 9.875, 10.1875, 10.125, 10.0625, 10.25, 9.9375, 10.0625, 10.25, 10.0, 10.125, 10.3125, 10.25, 10.125, 10.25, 10.4375, 10.4375, 10.3125, 10.25, 10.1875, 10.4375, 10.375, 10.3125, 10.25, 10.1875, 10.375, 10.75, 10.5625, 10.25, 10.4375, 10.25, 10.375, 10.375, 10.25, 10.3125, 10.25, 10.4375, 10.25, 9.9375, 10.3125, 10.3125, 10.375, 10.4375, 10.375, 10.3125, 10.375, 10.3125, 10.6875, 10.5625, 10.3125, 10.375, 10.375, 10.125, 10.3125, 10.3125, 10.1875, 10.5625, 10.625, 10.625, 10.8125, 10.8125, 10.375, 10.625, 10.5625, 10.5625, 10.625, 10.3125, 10.5, 10.5625, 10.3125, 10.3125, 10.3125, 10.3125]","[52992.0, 11072.0, 10432.0, 11840.0, 11840.0, 10432.0, 10432.0, 11840.0, 11072.0, 11072.0, 9792.0, 11072.0, 11072.0, 11840.0, 11072.0, 11072.0, 12544.0, 11840.0, 11840.0, 11840.0, 13376.0, 12544.0, 11072.0, 12544.0, 12544.0, 11072.0, 11840.0, 11840.0, 14272.0, 11840.0, 11072.0, 11840.0, 12544.0, 12544.0, 13376.0, 12544.0, 13376.0, 13376.0, 12544.0, 13376.0, 12544.0, 12544.0, 11072.0, 13376.0, 14272.0, 12544.0, 11072.0, 11840.0, 13376.0, 12544.0, 11072.0, 13376.0, 13376.0, 12544.0, 13376.0, 15168.0, 12544.0, 11840.0, 13376.0, 14272.0, 12544.0, 13376.0, 12544.0, 14272.0, 12544.0, 14272.0, 13376.0, 15168.0, 13376.0, 15168.0, 14272.0, 14272.0, 11840.0, 13376.0, 16128.0, 23424.0, 13376.0, 15168.0, 15168.0, 13376.0, 15168.0, 14272.0, 14272.0, 13376.0, 13376.0, 13376.0, 14272.0, 12544.0, 13376.0, 13376.0, 15168.0, 14272.0, 13376.0, 14272.0, 12544.0, 19456.0, 14272.0, 14272.0, 14272.0, 16128.0, 14272.0, 13376.0, 13376.0, 15168.0, 14272.0, 17152.0, 16128.0, 17152.0, 15168.0, 17152.0, 13376.0, 15168.0, 13376.0, 13376.0, 16128.0, 14272.0, 11840.0, 11072.0, 11072.0, 11840.0, 11840.0, 11840.0, 11072.0, 12544.0, 11840.0, 13376.0, 12544.0, 11072.0, 14272.0, 15168.0, 15168.0, 11840.0, 12544.0, 12544.0, 14272.0, 15168.0, 14272.0, 13376.0, 14272.0, 12544.0, 13376.0, 15168.0, 15168.0, 14272.0, 12544.0, 14272.0, 12544.0, 15168.0, 13376.0, 19456.0, 15168.0, 13376.0, 13376.0, 16128.0, 15168.0, 14272.0, 17152.0, 13376.0, 15168.0, 15168.0, 13376.0, 15168.0, 12544.0, 12544.0, 12544.0, 12544.0, 14272.0, 13376.0, 15168.0, 11840.0, 12544.0, 15168.0, 12544.0, 11072.0, 11840.0, 14272.0, 13376.0, 9792.0, 12544.0, 12544.0, 14272.0, 13376.0, 11840.0, 15168.0, 14272.0, 16128.0, 14272.0, 14272.0, 12544.0, 13376.0, 15168.0, 16128.0, 11840.0, 11840.0, 12544.0, 13376.0, 13376.0, 14272.0, 16128.0, 15168.0, 14272.0, 14272.0, 14272.0, 15168.0, 11072.0, 12544.0, 12544.0, 11840.0, 13376.0, 12544.0, 12544.0, 11840.0, 13376.0, 13376.0, 11072.0, 12544.0, 12544.0, 11840.0, 9792.0, 11840.0, 12544.0, 11072.0, 13376.0, 10432.0, 10432.0, 13376.0, 12544.0, 11072.0, 11840.0, 11072.0, 10432.0, 11072.0, 11072.0, 11840.0, 12544.0, 12544.0, 11840.0, 10432.0, 13376.0, 10432.0, 11840.0, 11072.0, 11072.0, 11072.0, 10432.0, 13376.0, 11072.0, 11072.0, 10432.0, 13376.0, 14272.0, 11840.0, 13376.0, 12544.0, 16128.0, 15168.0, 13376.0, 15168.0, 15168.0, 16128.0, 15168.0, 13376.0, 16128.0, 13376.0, 12544.0, 13376.0, 13376.0, 14272.0, 13376.0, 13376.0, 12544.0, 11840.0, 11840.0, 12544.0, 12544.0, 13376.0, 13376.0, 17152.0, 15168.0, 14272.0, 14272.0, 16128.0, 14272.0, 13376.0, 14272.0, 13376.0, 12544.0, 12544.0, 13376.0, 13376.0, 12544.0, 13376.0, 11840.0, 11840.0, 12544.0, 12544.0, 11840.0, 11840.0, 15168.0, 12544.0, 11840.0, 11840.0, 12544.0, 14272.0, 13376.0, 15168.0, 12544.0, 12544.0, 13376.0, 11072.0, 11072.0, 13376.0, 11072.0, 10432.0, 10432.0, 11072.0, 9216.0, 8640.0, 11072.0, 12544.0, 13376.0, 11840.0, 11072.0, 10432.0, 9216.0, 11072.0, 12544.0, 12544.0, 11840.0, 9792.0, 10432.0, 11072.0, 11840.0, 11072.0, 11072.0, 9792.0, 11072.0, 10432.0, 10432.0, 11072.0, 11072.0, 11840.0, 12544.0, 15168.0, 15168.0, 15168.0, 12544.0, 15168.0, 14272.0, 16128.0, 14272.0, 13376.0, 14272.0, 11072.0, 12544.0, 12544.0, 17152.0, 14272.0, 14272.0, 13376.0, 11840.0, 15168.0, 17152.0, 13376.0, 16128.0, 13376.0, 17152.0, 12544.0, 22016.0, 16128.0, 14272.0, 14272.0, 18304.0, 20736.0, 18304.0, 15168.0, 16128.0, 12544.0, 13376.0, 13376.0, 11840.0, 11072.0, 15168.0, 14272.0, 11840.0, 13376.0, 13376.0, 16128.0, 19456.0, 13376.0, 17152.0, 18304.0, 23424.0, 20736.0, 18304.0, 19456.0, 20736.0, 18304.0, 13376.0, 16128.0, 17152.0, 12544.0, 19456.0, 18304.0, 18304.0, 18304.0, 14272.0, 16128.0, 15168.0, 15168.0, 15168.0, 15168.0, 12544.0, 15168.0, 14272.0, 15168.0, 13376.0, 12544.0, 14272.0, 11840.0, 13376.0, 14272.0, 12544.0, 14272.0, 18304.0, 16128.0, 15168.0, 16128.0, 18304.0, 22016.0, 15168.0, 14272.0, 15168.0, 15168.0, 16128.0, 14272.0, 13376.0, 13376.0, 19456.0, 17152.0, 14272.0, 15168.0, 16128.0, 13376.0, 15168.0, 11840.0, 13376.0, 15168.0, 13376.0, 11840.0, 11072.0, 12544.0, 15168.0, 11840.0, 15168.0, 15168.0, 14272.0, 14272.0, 13376.0, 12544.0, 12544.0, 12544.0, 11840.0, 12544.0, 14272.0, 16128.0, 15168.0, 15168.0, 12544.0, 11840.0, 13376.0, 14272.0, 16128.0, 16128.0, 13376.0, 16128.0, 16128.0, 16128.0, 12544.0, 15168.0, 14272.0, 15168.0, 18304.0, 17152.0, 16128.0, 15168.0, 13376.0, 15168.0, 12544.0, 13376.0, 13376.0, 15168.0, 12544.0, 13376.0, 12544.0, 16128.0, 18304.0, 13376.0, 14272.0, 16128.0, 12544.0, 14272.0, 12544.0, 14272.0, 11840.0, 16128.0, 18304.0, 16128.0, 12544.0, 13376.0, 13376.0, 15168.0, 15168.0, 11840.0, 16128.0, 12544.0, 12544.0, 15168.0, 14272.0, 15168.0, 15168.0, 16128.0, 16128.0, 17152.0, 12544.0, 12544.0, 13376.0, 16128.0, 13376.0, 15168.0, 15168.0, 13376.0, 15168.0, 14272.0, 14272.0, 16128.0, 18304.0, 15168.0, 17152.0, 14272.0, 13376.0, 17152.0, 14272.0, 13376.0, 14272.0, 14272.0, 15168.0, 16128.0, 18304.0, 34304.0, 23424.0, 24960.0, 16128.0, 15168.0, 16128.0, 14272.0, 15168.0, 17152.0, 16128.0, 15168.0, 12544.0, 15168.0, 18304.0, 15168.0, 18304.0, 13376.0, 13376.0, 12544.0, 16128.0, 15168.0, 13376.0, 14272.0, 19456.0, 17152.0, 20736.0, 16128.0, 17152.0, 17152.0, 16128.0, 15168.0, 16128.0, 20736.0, 15168.0, 17152.0, 14272.0, 20736.0, 18304.0, 19456.0, 17152.0, 19456.0, 23424.0, 18304.0, 15168.0, 20736.0, 18304.0, 22016.0, 17152.0, 22016.0, 18304.0, 18304.0, 24960.0, 20736.0, 20736.0, 23424.0, 28288.0, 20736.0, 18304.0, 18304.0, 19456.0, 26624.0, 15168.0, 13376.0, 16128.0, 15168.0, 17152.0, 19456.0, 17152.0, 16128.0, 15168.0, 16128.0, 16128.0, 14272.0, 16128.0, 18304.0, 19456.0, 14272.0, 17152.0, 17152.0, 15168.0, 18304.0, 17152.0, 14272.0, 19456.0, 22016.0, 24960.0, 22016.0, 22016.0, 23424.0, 24960.0, 20736.0, 26624.0, 26624.0, 26624.0, 23424.0, 26624.0, 26624.0, 23424.0, 20736.0, 26624.0, 30208.0, 22016.0, 18304.0, 18304.0, 22016.0, 22016.0, 22016.0, 22016.0, 18304.0, 19456.0, 24960.0, 23424.0, 30208.0, 34304.0, 30208.0, 23424.0, 34304.0, 23424.0, 24960.0, 28288.0, 30208.0, 30208.0, 26624.0, 23424.0, 23424.0, 18304.0, 23424.0, 22016.0, 26624.0, 30208.0, 28288.0, 24960.0, 17152.0, 23424.0, 22016.0, 17152.0, 16128.0, 16128.0, 18304.0, 14272.0, 12544.0, 11840.0, 14272.0, 16128.0, 13376.0, 15168.0, 15168.0, 15168.0, 22016.0, 17152.0, 14272.0, 14272.0, 12544.0, 15168.0, 14272.0, 13376.0, 16128.0, 15168.0, 16128.0, 14272.0, 16128.0, 15168.0, 17152.0, 14272.0, 17152.0, 18304.0, 18304.0, 18304.0, 20736.0, 18304.0, 15168.0, 15168.0, 19456.0, 20736.0, 24960.0, 23424.0, 22016.0, 19456.0, 20736.0, 15168.0, 17152.0, 15168.0, 18304.0, 15168.0, 16128.0, 17152.0, 13376.0, 15168.0, 13376.0, 11840.0, 11840.0, 11840.0, 14272.0, 15168.0, 22016.0, 17152.0, 17152.0, 18304.0, 15168.0, 15168.0, 18304.0, 18304.0, 23424.0, 17152.0, 22016.0, 22016.0, 22016.0, 20736.0, 17152.0, 16128.0, 18304.0, 17152.0, 14272.0, 14272.0, 20736.0, 19456.0, 20736.0, 19456.0, 17152.0, 18304.0, 18304.0, 19456.0, 15168.0, 56320.0, 23424.0, 22016.0, 20736.0, 19456.0, 20736.0, 23424.0, 20736.0, 26624.0, 22016.0, 26624.0, 22016.0, 24960.0, 32128.0, 34304.0, 19456.0, 23424.0, 23424.0, 28288.0, 34304.0, 28288.0, 28288.0, 15168.0, 14272.0, 18304.0, 26624.0, 28288.0, 20736.0, 19456.0, 19456.0, 20736.0, 22016.0, 24960.0, 32128.0, 34304.0, 28288.0, 28288.0, 28288.0, 36352.0, 38656.0, 36352.0, 28288.0, 26624.0, 36352.0, 38656.0, 32128.0, 36352.0, 36352.0, 38656.0, 49664.0, 46592.0, 32128.0, 26624.0, 38656.0, 34304.0, 30208.0, 34304.0, 32128.0, 22016.0, 19456.0, 16128.0, 16128.0, 20736.0, 18304.0, 18304.0, 18304.0, 26624.0, 20736.0, 18304.0, 18304.0, 23424.0, 24960.0, 23424.0, 20736.0, 26624.0, 26624.0, 26624.0, 26624.0, 28288.0, 30208.0, 24960.0, 23424.0, 23424.0, 22016.0, 23424.0, 16128.0, 24960.0, 26624.0, 22016.0, 20736.0, 20736.0, 18304.0, 19456.0, 19456.0, 19456.0, 22016.0, 43776.0, 23424.0, 17152.0, 18304.0, 22016.0, 22016.0, 26624.0, 34304.0, 22016.0, 26624.0, 22016.0, 22016.0, 26624.0, 23424.0, 28288.0, 23424.0, 26624.0, 24960.0, 28288.0, 23424.0, 23424.0, 20736.0, 19456.0, 17152.0, 22016.0, 23424.0, 34304.0, 28288.0, 30208.0, 24960.0, 17152.0, 18304.0, 19456.0, 20736.0, 20736.0, 18304.0, 22016.0, 36352.0, 46592.0, 30208.0, 28288.0, 32128.0, 24960.0, 26624.0, 24960.0, 19456.0, 26624.0, 22016.0, 18304.0, 17152.0, 18304.0, 24960.0, 19456.0, 15168.0, 19456.0, 19456.0, 24960.0, 28288.0, 23424.0, 23424.0, 24960.0, 23424.0, 24960.0, 23424.0, 22016.0, 22016.0, 20736.0, 23424.0, 32128.0, 20736.0, 22016.0, 24960.0, 19456.0, 36352.0, 26624.0, 43776.0, 49664.0, 41216.0, 46592.0, 32128.0, 24960.0, 28288.0, 28288.0, 34304.0, 26624.0, 19456.0, 23424.0, 24960.0, 28288.0, 22016.0, 20736.0, 19456.0, 23424.0, 56320.0, 112128.0, 59904.0, 72192.0, 72192.0, 52992.0, 49664.0, 59904.0, 76800.0, 76800.0, 98816.0, 76800.0, 87040.0, 87040.0, 76800.0, 56320.0, 56320.0, 126976.0, 237568.0, 174080.0, 174080.0, 126976.0, 112128.0, 92672.0, 76800.0, 98816.0, 92672.0, 87040.0, 81920.0, 112128.0, 126976.0, 76800.0, 72192.0, 76800.0, 68096.0, 59904.0, 63744.0, 98816.0, 87040.0, 52992.0, 49664.0, 52992.0, 76800.0, 87040.0, 63744.0, 68096.0, 63744.0, 56320.0, 68096.0, 112128.0, 237568.0, 237568.0, 184320.0, 87040.0, 76800.0, 63744.0, 59904.0, 63744.0, 68096.0, 72192.0, 81920.0, 76800.0, 16128.0, 13376.0, 13376.0, 18304.0, 14272.0, 15168.0, 16128.0, 20736.0, 17152.0, 17152.0, 19456.0, 26624.0, 24960.0, 23424.0, 28288.0, 20736.0, 23424.0, 28288.0, 22016.0, 24960.0, 30208.0, 28288.0, 24960.0, 28288.0, 34304.0, 34304.0, 30208.0, 28288.0, 26624.0, 34304.0, 32128.0, 30208.0, 28288.0, 26624.0, 32128.0, 46592.0, 38656.0, 28288.0, 34304.0, 28288.0, 32128.0, 32128.0, 28288.0, 30208.0, 28288.0, 34304.0, 28288.0, 20736.0, 30208.0, 30208.0, 32128.0, 34304.0, 32128.0, 30208.0, 32128.0, 30208.0, 43776.0, 38656.0, 30208.0, 32128.0, 32128.0, 24960.0, 30208.0, 30208.0, 26624.0, 38656.0, 41216.0, 41216.0, 49664.0, 49664.0, 32128.0, 41216.0, 38656.0, 38656.0, 41216.0, 30208.0, 36352.0, 38656.0, 30208.0, 30208.0, 30208.0, 30208.0]","[10.9375, 9.0625, 9.0, 9.0625, 9.0625, 8.9375, 8.9375, 9.125, 9.125, 9.125, 8.9375, 9.0625, 9.0625, 9.125, 9.3125, 9.625, 9.25, 9.3125, 9.25, 9.125, 9.25, 9.125, 9.3125, 9.4375, 9.375, 9.125, 9.1875, 9.25, 9.4375, 9.25, 9.3125, 9.25, 9.25, 9.1875, 9.25, 9.1875, 9.4375, 9.875, 9.375, 9.3125, 9.375, 9.25, 9.1875, 9.5, 9.6875, 9.5, 9.3125, 9.25, 9.6875, 9.5, 9.3125, 9.4375, 9.5, 9.375, 9.8125, 10.125, 10.25, 10.125, 10.625, 11.375, 10.375, 9.5625, 9.5, 9.625, 9.9375, 11.125, 10.375, 10.5625, 10.6875, 11.25, 11.4375, 11.75, 11.5, 12.0625, 11.75, 12.875, 10.625, 10.5, 10.8125, 10.5625, 10.625, 10.5625, 10.375, 10.9375, 10.1875, 10.25, 10.8125, 10.5, 10.375, 10.625, 11.0, 11.0, 10.75, 10.75, 10.625, 12.125, 11.1875, 10.9375, 11.1875, 10.875, 10.75, 10.8125, 10.875, 10.5625, 10.375, 10.4375, 10.3125, 10.125, 10.0625, 10.5, 10.125, 10.4375, 10.3125, 10.0625, 10.5, 10.6875, 10.375, 9.4375, 9.375, 9.4375, 10.0625, 10.1875, 10.375, 10.625, 10.1875, 10.25, 10.3125, 10.0, 10.6875, 10.9375, 10.6875, 10.75, 10.625, 10.5, 10.25, 10.5625, 10.125, 10.4375, 9.9375, 9.8125, 10.0, 10.5, 10.6875, 10.25, 10.125, 10.3125, 9.8125, 10.5, 10.8125, 10.6875, 10.4375, 10.25, 9.9375, 10.3125, 10.4375, 10.25, 10.5, 10.5, 10.6875, 10.5625, 10.375, 10.125, 9.6875, 9.6875, 10.0625, 9.75, 10.4375, 10.3125, 10.125, 9.8125, 9.9375, 9.875, 9.5, 9.375, 9.5, 9.6875, 9.75, 9.5, 9.625, 9.625, 9.75, 9.75, 9.75, 10.125, 9.8125, 10.1875, 10.0, 9.8125, 9.3125, 9.5625, 9.75, 10.0625, 9.75, 9.4375, 9.875, 9.75, 9.75, 10.3125, 10.1875, 10.1875, 10.25, 10.4375, 10.1875, 9.9375, 9.5625, 9.6875, 9.375, 9.25, 9.25, 9.3125, 9.5, 9.375, 9.5, 9.4375, 9.0625, 9.125, 9.3125, 9.25, 8.9375, 9.0, 9.4375, 9.0625, 9.125, 9.125, 9.3125, 9.625, 9.5, 9.1875, 9.375, 9.1875, 9.3125, 9.25, 9.3125, 9.5, 9.5, 9.6875, 9.5625, 9.3125, 9.6875, 9.5625, 9.625, 9.5, 9.4375, 9.375, 9.3125, 9.3125, 9.25, 9.4375, 9.5625, 9.8125, 9.6875, 9.5, 9.6875, 9.6875, 9.8125, 9.625, 9.5625, 9.5, 9.9375, 9.8125, 10.125, 9.875, 9.8125, 9.5625, 9.25, 9.5625, 9.5, 9.625, 9.625, 9.4375, 9.3125, 9.5, 9.4375, 9.5, 9.375, 9.3125, 9.6875, 9.9375, 9.9375, 9.75, 9.875, 10.25, 9.875, 9.75, 9.5, 9.5, 9.625, 9.625, 9.625, 9.625, 9.3125, 9.6875, 9.3125, 9.375, 9.3125, 9.3125, 9.3125, 9.5, 9.75, 9.25, 9.125, 9.1875, 9.4375, 9.625, 9.75, 9.9375, 9.6875, 9.5625, 10.3125, 9.375, 9.375, 9.375, 9.4375, 9.8125, 10.1875, 10.5, 8.9375, 9.0625, 9.125, 9.375, 9.375, 9.5, 9.1875, 9.0625, 9.0625, 9.5625, 9.6875, 9.8125, 9.8125, 9.5625, 9.5, 9.5, 9.4375, 9.5, 9.75, 9.625, 9.8125, 9.75, 9.3125, 9.6875, 9.625, 9.625, 9.9375, 10.5, 10.5625, 10.6875, 10.0, 10.75, 10.9375, 10.875, 10.5, 10.1875, 10.625, 10.1875, 10.1875, 10.625, 11.1875, 10.5, 10.5, 10.625, 10.125, 11.0, 11.4375, 10.6875, 11.0625, 11.0, 11.0625, 10.375, 12.25, 11.4375, 10.875, 11.375, 11.8125, 12.0625, 11.6875, 11.125, 11.125, 10.5625, 10.0625, 10.3125, 10.375, 10.25, 10.4375, 10.75, 10.3125, 10.3125, 9.9375, 10.9375, 11.25, 10.4375, 11.75, 11.9375, 12.1875, 12.0625, 11.8125, 11.75, 12.0, 11.8125, 11.125, 12.125, 11.4375, 10.75, 11.5625, 11.4375, 11.3125, 11.375, 10.4375, 10.25, 10.375, 10.6875, 10.6875, 10.5, 10.25, 10.4375, 10.25, 10.4375, 10.1875, 10.0, 10.0, 10.1875, 10.25, 10.0625, 10.0625, 10.25, 10.75, 10.5625, 10.25, 10.75, 11.25, 11.1875, 10.1875, 10.0, 10.25, 10.0625, 10.5, 10.0, 9.9375, 10.0, 10.875, 10.6875, 10.0625, 10.25, 10.3125, 10.5625, 10.0625, 9.8125, 10.0, 10.125, 10.0, 9.4375, 9.375, 9.5625, 10.25, 9.8125, 9.875, 9.8125, 9.875, 9.8125, 9.6875, 9.5, 9.375, 9.25, 9.4375, 9.6875, 9.75, 10.0, 10.125, 9.9375, 9.4375, 9.4375, 9.75, 9.8125, 9.9375, 9.9375, 9.6875, 10.0, 10.25, 10.0, 9.75, 9.75, 10.0, 9.9375, 10.0, 10.1875, 10.625, 9.875, 9.6875, 9.5625, 9.3125, 9.4375, 9.8125, 10.0625, 9.6875, 9.25, 9.625, 10.625, 10.6875, 10.4375, 10.4375, 10.375, 10.0, 10.1875, 10.125, 10.0, 10.0, 10.4375, 10.625, 10.25, 10.0, 9.75, 9.875, 10.25, 10.0625, 9.8125, 10.0, 9.625, 9.9375, 10.1875, 10.4375, 10.625, 10.4375, 10.4375, 10.1875, 10.5625, 9.9375, 9.6875, 9.8125, 10.375, 10.3125, 10.25, 10.3125, 9.8125, 9.8125, 9.9375, 10.3125, 10.25, 10.375, 10.125, 10.25, 10.125, 10.1875, 10.5625, 10.4375, 10.3125, 10.375, 10.1875, 10.375, 10.3125, 10.875, 12.25, 11.5, 11.6875, 10.875, 10.5625, 10.75, 10.3125, 10.5625, 11.0, 10.75, 11.0, 10.6875, 10.9375, 11.0625, 11.6875, 11.625, 11.3125, 10.3125, 10.3125, 10.9375, 10.6875, 10.125, 11.6875, 12.125, 12.125, 12.875, 11.3125, 11.6875, 12.125, 11.0, 10.375, 10.6875, 11.6875, 10.6875, 11.125, 10.5625, 12.5, 12.9375, 12.0625, 11.1875, 11.375, 12.0, 11.0, 11.1875, 12.125, 11.5625, 12.0625, 11.375, 11.6875, 11.6875, 12.5625, 13.5625, 13.1875, 12.6875, 13.0625, 13.9375, 12.8125, 12.25, 12.0, 11.75, 12.875, 11.0625, 10.625, 11.0625, 10.8125, 10.8125, 11.3125, 11.25, 11.125, 11.25, 11.0, 10.8125, 10.875, 11.5625, 11.75, 11.8125, 10.8125, 10.9375, 11.3125, 11.125, 11.4375, 11.25, 11.0625, 11.4375, 12.25, 12.3125, 12.1875, 11.8125, 12.0625, 12.5625, 11.6875, 12.0625, 12.25, 12.5, 12.3125, 12.6875, 12.4375, 12.1875, 12.25, 12.4375, 12.375, 11.8125, 11.4375, 11.75, 11.875, 11.75, 11.9375, 11.8125, 11.5, 11.75, 12.1875, 12.125, 12.8125, 13.1875, 13.0, 12.3125, 12.875, 12.5625, 12.5625, 13.0, 13.3125, 13.375, 12.875, 12.5625, 12.625, 12.0625, 13.125, 12.875, 12.9375, 13.5625, 13.375, 12.625, 11.625, 12.125, 12.8125, 12.5625, 11.6875, 10.9375, 11.6875, 10.0625, 9.75, 9.8125, 10.375, 10.625, 10.0, 10.3125, 10.3125, 10.125, 11.0625, 10.625, 10.1875, 9.8125, 9.875, 9.9375, 9.875, 10.125, 10.3125, 10.1875, 10.6875, 10.375, 10.375, 10.375, 10.5625, 10.625, 11.0625, 11.0, 11.25, 11.4375, 11.9375, 11.5, 11.4375, 11.0, 11.5, 11.9375, 12.9375, 12.75, 12.75, 12.1875, 12.0, 11.5625, 11.6875, 11.5625, 11.875, 11.6875, 11.9375, 11.375, 11.3125, 11.375, 11.1875, 9.9375, 10.0, 10.0625, 10.5625, 11.0625, 12.6875, 12.5, 11.875, 11.875, 11.1875, 11.0625, 11.6875, 12.0, 13.0, 13.0, 12.3125, 12.75, 12.25, 12.75, 11.9375, 11.5, 11.5625, 11.6875, 11.1875, 11.1875, 12.125, 12.1875, 12.5625, 12.9375, 12.375, 13.0625, 13.25, 13.3125, 12.3125, 17.125, 12.5625, 11.4375, 11.5, 11.125, 11.25, 11.1875, 11.3125, 11.8125, 11.4375, 12.375, 11.5625, 12.0625, 13.0, 13.3125, 12.125, 11.8125, 11.8125, 12.5625, 12.8125, 12.4375, 12.625, 11.0, 11.0, 11.5, 12.75, 13.9375, 12.9375, 12.5625, 12.375, 12.625, 12.4375, 12.8125, 14.0, 14.4375, 14.4375, 14.1875, 14.0, 14.9375, 14.9375, 14.375, 14.0625, 13.6875, 14.125, 14.5, 14.4375, 14.25, 14.4375, 14.75, 15.1875, 15.4375, 14.5, 14.1875, 15.4375, 14.875, 14.0625, 14.8125, 14.875, 13.6875, 12.9375, 12.6875, 12.125, 13.0625, 13.0625, 12.8125, 13.125, 13.625, 13.4375, 12.625, 12.1875, 12.9375, 13.5625, 13.3125, 12.5, 13.3125, 13.5625, 13.625, 13.5, 13.375, 14.4375, 13.9375, 13.875, 13.3125, 13.6875, 13.0, 12.125, 13.0625, 13.875, 13.1875, 12.625, 13.5, 12.5625, 12.625, 13.0, 12.625, 12.875, 14.625, 13.0, 11.75, 11.9375, 12.3125, 12.25, 12.75, 13.1875, 12.25, 13.0625, 12.125, 11.8125, 12.75, 12.3125, 13.125, 13.125, 13.25, 13.4375, 13.3125, 12.9375, 12.6875, 12.3125, 11.75, 11.6875, 12.5625, 12.9375, 13.875, 13.4375, 13.6875, 13.0625, 12.0, 11.625, 11.625, 12.0625, 11.4375, 11.25, 12.0625, 13.625, 14.3125, 13.375, 12.875, 13.125, 12.5625, 12.6875, 12.625, 12.125, 12.8125, 12.8125, 12.375, 12.3125, 12.5625, 13.125, 12.375, 11.3125, 11.5, 11.9375, 12.375, 12.3125, 11.875, 12.4375, 13.4375, 13.25, 13.4375, 12.75, 12.6875, 12.6875, 12.5, 13.0, 14.25, 11.4375, 11.9375, 12.8125, 12.25, 14.1875, 13.375, 14.4375, 15.1875, 14.9375, 14.625, 14.0, 13.0625, 13.0, 12.875, 13.5, 12.8125, 11.3125, 11.6875, 12.4375, 12.875, 12.125, 12.0, 11.6875, 12.25, 15.9375, 16.125, 14.6875, 14.875, 14.75, 14.1875, 13.5625, 14.1875, 15.125, 15.625, 15.625, 14.875, 15.1875, 14.875, 14.5, 14.0625, 14.1875, 16.25, 17.5, 16.75, 16.375, 16.125, 15.6875, 15.6875, 15.25, 15.3125, 15.875, 15.375, 15.6875, 16.25, 16.5, 15.0, 15.3125, 15.125, 15.0625, 14.4375, 14.75, 15.75, 15.5625, 14.625, 14.1875, 14.0625, 14.875, 15.25, 14.375, 14.6875, 14.3125, 14.25, 14.9375, 16.375, 19.0, 18.75, 18.5, 17.625, 17.0, 17.0, 16.75, 16.75, 16.875, 16.75, 16.625, 16.75, 9.75, 9.3125, 9.5, 10.0, 9.9375, 9.9375, 10.3125, 10.8125, 10.625, 10.6875, 10.8125, 12.4375, 12.3125, 12.125, 12.25, 11.6875, 11.9375, 12.3125, 11.625, 12.25, 12.8125, 12.75, 12.5625, 12.6875, 12.875, 13.0625, 13.25, 13.0625, 13.0, 13.125, 13.1875, 13.0625, 12.9375, 13.375, 13.3125, 13.8125, 13.9375, 13.375, 13.4375, 13.3125, 13.5625, 13.6875, 13.4375, 13.375, 13.5625, 13.875, 13.6875, 13.0, 13.625, 13.625, 13.9375, 13.875, 13.875, 13.625, 13.6875, 13.6875, 14.0625, 13.875, 13.875, 13.625, 13.6875, 13.0625, 13.375, 13.6875, 13.9375, 14.0625, 14.125, 14.125, 15.0625, 14.8125, 14.125, 14.0625, 13.9375, 13.6875, 14.125, 14.0, 14.375, 14.125, 14.0625, 13.4375, 13.625, 13.25]","[56320.0, 8640.0, 8128.0, 8640.0, 8640.0, 7616.0, 7616.0, 9216.0, 9216.0, 9216.0, 7616.0, 8640.0, 8640.0, 9216.0, 11072.0, 15168.0, 10432.0, 11072.0, 10432.0, 9216.0, 10432.0, 9216.0, 11072.0, 12544.0, 11840.0, 9216.0, 9792.0, 10432.0, 12544.0, 10432.0, 11072.0, 10432.0, 10432.0, 9792.0, 10432.0, 9792.0, 12544.0, 19456.0, 11840.0, 11072.0, 11840.0, 10432.0, 9792.0, 13376.0, 16128.0, 13376.0, 11072.0, 10432.0, 16128.0, 13376.0, 11072.0, 12544.0, 13376.0, 11840.0, 18304.0, 24960.0, 28288.0, 24960.0, 41216.0, 87040.0, 32128.0, 14272.0, 13376.0, 15168.0, 20736.0, 68096.0, 32128.0, 38656.0, 43776.0, 76800.0, 92672.0, 126976.0, 98816.0, 174080.0, 126976.0, 391168.0, 41216.0, 36352.0, 49664.0, 38656.0, 41216.0, 38656.0, 32128.0, 56320.0, 26624.0, 28288.0, 49664.0, 36352.0, 32128.0, 41216.0, 59904.0, 59904.0, 46592.0, 46592.0, 41216.0, 184320.0, 72192.0, 56320.0, 72192.0, 52992.0, 46592.0, 49664.0, 52992.0, 38656.0, 32128.0, 34304.0, 30208.0, 24960.0, 23424.0, 36352.0, 24960.0, 34304.0, 30208.0, 23424.0, 36352.0, 43776.0, 32128.0, 12544.0, 11840.0, 12544.0, 23424.0, 26624.0, 32128.0, 41216.0, 26624.0, 28288.0, 30208.0, 22016.0, 43776.0, 56320.0, 43776.0, 46592.0, 41216.0, 36352.0, 28288.0, 38656.0, 24960.0, 34304.0, 20736.0, 18304.0, 22016.0, 36352.0, 43776.0, 28288.0, 24960.0, 30208.0, 18304.0, 36352.0, 49664.0, 43776.0, 34304.0, 28288.0, 20736.0, 30208.0, 34304.0, 28288.0, 36352.0, 36352.0, 43776.0, 38656.0, 32128.0, 24960.0, 16128.0, 16128.0, 23424.0, 17152.0, 34304.0, 30208.0, 24960.0, 18304.0, 20736.0, 19456.0, 13376.0, 11840.0, 13376.0, 16128.0, 17152.0, 13376.0, 15168.0, 15168.0, 17152.0, 17152.0, 17152.0, 24960.0, 18304.0, 26624.0, 22016.0, 18304.0, 11072.0, 14272.0, 17152.0, 23424.0, 17152.0, 12544.0, 19456.0, 17152.0, 17152.0, 30208.0, 26624.0, 26624.0, 28288.0, 34304.0, 26624.0, 20736.0, 14272.0, 16128.0, 11840.0, 10432.0, 10432.0, 11072.0, 13376.0, 11840.0, 13376.0, 12544.0, 8640.0, 9216.0, 11072.0, 10432.0, 7616.0, 8128.0, 12544.0, 8640.0, 9216.0, 9216.0, 11072.0, 15168.0, 13376.0, 9792.0, 11840.0, 9792.0, 11072.0, 10432.0, 11072.0, 13376.0, 13376.0, 16128.0, 14272.0, 11072.0, 16128.0, 14272.0, 15168.0, 13376.0, 12544.0, 11840.0, 11072.0, 11072.0, 10432.0, 12544.0, 14272.0, 18304.0, 16128.0, 13376.0, 16128.0, 16128.0, 18304.0, 15168.0, 14272.0, 13376.0, 20736.0, 18304.0, 24960.0, 19456.0, 18304.0, 14272.0, 10432.0, 14272.0, 13376.0, 15168.0, 15168.0, 12544.0, 11072.0, 13376.0, 12544.0, 13376.0, 11840.0, 11072.0, 16128.0, 20736.0, 20736.0, 17152.0, 19456.0, 28288.0, 19456.0, 17152.0, 13376.0, 13376.0, 15168.0, 15168.0, 15168.0, 15168.0, 11072.0, 16128.0, 11072.0, 11840.0, 11072.0, 11072.0, 11072.0, 13376.0, 17152.0, 10432.0, 9216.0, 9792.0, 12544.0, 15168.0, 17152.0, 20736.0, 16128.0, 14272.0, 30208.0, 11840.0, 11840.0, 11840.0, 12544.0, 18304.0, 26624.0, 36352.0, 7616.0, 8640.0, 9216.0, 11840.0, 11840.0, 13376.0, 9792.0, 8640.0, 8640.0, 14272.0, 16128.0, 18304.0, 18304.0, 14272.0, 13376.0, 13376.0, 12544.0, 13376.0, 17152.0, 15168.0, 18304.0, 17152.0, 11072.0, 16128.0, 15168.0, 15168.0, 20736.0, 36352.0, 38656.0, 43776.0, 22016.0, 46592.0, 56320.0, 52992.0, 36352.0, 26624.0, 41216.0, 26624.0, 26624.0, 41216.0, 72192.0, 36352.0, 36352.0, 41216.0, 24960.0, 59904.0, 92672.0, 43776.0, 63744.0, 59904.0, 63744.0, 32128.0, 209920.0, 92672.0, 52992.0, 87040.0, 135168.0, 174080.0, 119296.0, 68096.0, 68096.0, 38656.0, 23424.0, 30208.0, 32128.0, 28288.0, 34304.0, 46592.0, 30208.0, 30208.0, 20736.0, 56320.0, 76800.0, 34304.0, 126976.0, 153600.0, 196608.0, 174080.0, 135168.0, 126976.0, 162816.0, 135168.0, 68096.0, 184320.0, 92672.0, 46592.0, 105472.0, 92672.0, 81920.0, 87040.0, 34304.0, 28288.0, 32128.0, 43776.0, 43776.0, 36352.0, 28288.0, 34304.0, 28288.0, 34304.0, 26624.0, 22016.0, 22016.0, 26624.0, 28288.0, 23424.0, 23424.0, 28288.0, 46592.0, 38656.0, 28288.0, 46592.0, 76800.0, 72192.0, 26624.0, 22016.0, 28288.0, 23424.0, 36352.0, 22016.0, 20736.0, 22016.0, 52992.0, 43776.0, 23424.0, 28288.0, 30208.0, 38656.0, 23424.0, 18304.0, 22016.0, 24960.0, 22016.0, 12544.0, 11840.0, 14272.0, 28288.0, 18304.0, 19456.0, 18304.0, 19456.0, 18304.0, 16128.0, 13376.0, 11840.0, 10432.0, 12544.0, 16128.0, 17152.0, 22016.0, 24960.0, 20736.0, 12544.0, 12544.0, 17152.0, 18304.0, 20736.0, 20736.0, 16128.0, 22016.0, 28288.0, 22016.0, 17152.0, 17152.0, 22016.0, 20736.0, 22016.0, 26624.0, 41216.0, 19456.0, 16128.0, 14272.0, 11072.0, 12544.0, 18304.0, 23424.0, 16128.0, 10432.0, 15168.0, 41216.0, 43776.0, 34304.0, 34304.0, 32128.0, 22016.0, 26624.0, 24960.0, 22016.0, 22016.0, 34304.0, 41216.0, 28288.0, 22016.0, 17152.0, 19456.0, 28288.0, 23424.0, 18304.0, 22016.0, 15168.0, 20736.0, 26624.0, 34304.0, 41216.0, 34304.0, 34304.0, 26624.0, 38656.0, 20736.0, 16128.0, 18304.0, 32128.0, 30208.0, 28288.0, 30208.0, 18304.0, 18304.0, 20736.0, 30208.0, 28288.0, 32128.0, 24960.0, 28288.0, 24960.0, 26624.0, 38656.0, 34304.0, 30208.0, 32128.0, 26624.0, 32128.0, 30208.0, 52992.0, 209920.0, 98816.0, 119296.0, 52992.0, 38656.0, 46592.0, 30208.0, 38656.0, 59904.0, 46592.0, 59904.0, 43776.0, 56320.0, 63744.0, 119296.0, 112128.0, 81920.0, 30208.0, 30208.0, 56320.0, 43776.0, 24960.0, 119296.0, 184320.0, 184320.0, 391168.0, 81920.0, 119296.0, 184320.0, 59904.0, 32128.0, 43776.0, 119296.0, 43776.0, 68096.0, 38656.0, 268288.0, 415744.0, 174080.0, 72192.0, 87040.0, 162816.0, 59904.0, 72192.0, 184320.0, 105472.0, 174080.0, 87040.0, 119296.0, 119296.0, 286720.0, 778240.0, 536576.0, 323584.0, 471040.0, 1130496.0, 366592.0, 209920.0, 162816.0, 126976.0, 391168.0, 63744.0, 41216.0, 63744.0, 49664.0, 49664.0, 81920.0, 76800.0, 68096.0, 76800.0, 59904.0, 49664.0, 52992.0, 105472.0, 126976.0, 135168.0, 49664.0, 56320.0, 81920.0, 68096.0, 92672.0, 76800.0, 63744.0, 92672.0, 209920.0, 223232.0, 196608.0, 135168.0, 174080.0, 286720.0, 119296.0, 174080.0, 209920.0, 268288.0, 223232.0, 323584.0, 252928.0, 196608.0, 209920.0, 252928.0, 237568.0, 135168.0, 92672.0, 126976.0, 144384.0, 126976.0, 153600.0, 135168.0, 98816.0, 126976.0, 196608.0, 184320.0, 366592.0, 536576.0, 444416.0, 223232.0, 391168.0, 286720.0, 286720.0, 444416.0, 606208.0, 647168.0, 391168.0, 286720.0, 305152.0, 174080.0, 501760.0, 391168.0, 415744.0, 778240.0, 647168.0, 305152.0, 112128.0, 184320.0, 366592.0, 286720.0, 119296.0, 56320.0, 119296.0, 23424.0, 17152.0, 18304.0, 32128.0, 41216.0, 22016.0, 30208.0, 30208.0, 24960.0, 63744.0, 41216.0, 26624.0, 18304.0, 19456.0, 20736.0, 19456.0, 24960.0, 30208.0, 26624.0, 43776.0, 32128.0, 32128.0, 32128.0, 38656.0, 41216.0, 63744.0, 59904.0, 76800.0, 92672.0, 153600.0, 98816.0, 92672.0, 59904.0, 98816.0, 153600.0, 415744.0, 346112.0, 346112.0, 196608.0, 162816.0, 105472.0, 119296.0, 105472.0, 144384.0, 119296.0, 153600.0, 87040.0, 81920.0, 87040.0, 72192.0, 20736.0, 22016.0, 23424.0, 38656.0, 63744.0, 323584.0, 268288.0, 144384.0, 144384.0, 72192.0, 63744.0, 119296.0, 162816.0, 444416.0, 444416.0, 223232.0, 346112.0, 209920.0, 346112.0, 153600.0, 98816.0, 105472.0, 119296.0, 72192.0, 72192.0, 184320.0, 196608.0, 286720.0, 415744.0, 237568.0, 471040.0, 569344.0, 606208.0, 223232.0, 27394048.0, 286720.0, 92672.0, 98816.0, 68096.0, 76800.0, 72192.0, 81920.0, 135168.0, 92672.0, 237568.0, 105472.0, 174080.0, 444416.0, 606208.0, 184320.0, 135168.0, 135168.0, 286720.0, 366592.0, 252928.0, 305152.0, 59904.0, 59904.0, 98816.0, 346112.0, 1130496.0, 415744.0, 286720.0, 237568.0, 305152.0, 252928.0, 366592.0, 1204224.0, 1867776.0, 1867776.0, 1458176.0, 1204224.0, 3080192.0, 3080192.0, 1753088.0, 1286144.0, 880640.0, 1368064.0, 1990656.0, 1867776.0, 1548288.0, 1867776.0, 2555904.0, 3948544.0, 5079040.0, 1990656.0, 1458176.0, 5079040.0, 2899968.0, 1286144.0, 2719744.0, 2899968.0, 880640.0, 415744.0, 323584.0, 184320.0, 471040.0, 471040.0, 366592.0, 501760.0, 827392.0, 688128.0, 305152.0, 196608.0, 415744.0, 778240.0, 606208.0, 268288.0, 606208.0, 778240.0, 827392.0, 729088.0, 647168.0, 1867776.0, 1130496.0, 1064960.0, 606208.0, 880640.0, 444416.0, 184320.0, 471040.0, 1064960.0, 536576.0, 305152.0, 729088.0, 286720.0, 305152.0, 444416.0, 305152.0, 391168.0, 2244608.0, 444416.0, 126976.0, 153600.0, 223232.0, 209920.0, 346112.0, 536576.0, 209920.0, 471040.0, 184320.0, 135168.0, 346112.0, 223232.0, 501760.0, 501760.0, 569344.0, 688128.0, 606208.0, 415744.0, 323584.0, 223232.0, 126976.0, 119296.0, 286720.0, 415744.0, 1064960.0, 688128.0, 880640.0, 471040.0, 162816.0, 112128.0, 112128.0, 174080.0, 92672.0, 76800.0, 174080.0, 827392.0, 1646592.0, 647168.0, 391168.0, 501760.0, 286720.0, 323584.0, 305152.0, 184320.0, 366592.0, 366592.0, 237568.0, 223232.0, 286720.0, 501760.0, 237568.0, 81920.0, 98816.0, 153600.0, 237568.0, 223232.0, 144384.0, 252928.0, 688128.0, 569344.0, 688128.0, 346112.0, 323584.0, 323584.0, 268288.0, 444416.0, 1548288.0, 92672.0, 153600.0, 366592.0, 209920.0, 1458176.0, 647168.0, 1867776.0, 3948544.0, 3080192.0, 2244608.0, 1204224.0, 471040.0, 444416.0, 391168.0, 729088.0, 366592.0, 81920.0, 119296.0, 252928.0, 391168.0, 184320.0, 162816.0, 119296.0, 209920.0, 8355840.0, 10092544.0, 2392064.0, 2899968.0, 2555904.0, 1458176.0, 778240.0, 1458176.0, 3719168.0, 6127616.0, 6127616.0, 2899968.0, 3948544.0, 2899968.0, 1990656.0, 1286144.0, 1458176.0, 11468800.0, 39845888.0, 18874368.0, 12976128.0, 10092544.0, 6520832.0, 6520832.0, 4194304.0, 4489216.0, 7864320.0, 4784128.0, 6520832.0, 11468800.0, 14680064.0, 3276800.0, 4489216.0, 3719168.0, 3489792.0, 1867776.0, 2555904.0, 6946816.0, 5767168.0, 2244608.0, 1458176.0, 1286144.0, 2899968.0, 4194304.0, 1753088.0, 2392064.0, 1646592.0, 1548288.0, 3080192.0, 12976128.0, 179306496.0, 139460608.0, 108527616.0, 45350912.0, 24248320.0, 24248320.0, 18874368.0, 18874368.0, 21364736.0, 18874368.0, 16646144.0, 18874368.0, 17152.0, 11072.0, 13376.0, 22016.0, 20736.0, 20736.0, 30208.0, 49664.0, 41216.0, 43776.0, 49664.0, 252928.0, 223232.0, 184320.0, 209920.0, 119296.0, 153600.0, 223232.0, 112128.0, 209920.0, 366592.0, 346112.0, 286720.0, 323584.0, 391168.0, 471040.0, 569344.0, 471040.0, 444416.0, 501760.0, 536576.0, 471040.0, 415744.0, 647168.0, 606208.0, 999424.0, 1130496.0, 647168.0, 688128.0, 606208.0, 778240.0, 880640.0, 688128.0, 647168.0, 778240.0, 1064960.0, 880640.0, 444416.0, 827392.0, 827392.0, 1130496.0, 1064960.0, 1064960.0, 827392.0, 880640.0, 880640.0, 1286144.0, 1064960.0, 1064960.0, 827392.0, 880640.0, 471040.0, 647168.0, 880640.0, 1130496.0, 1286144.0, 1368064.0, 1368064.0, 3489792.0, 2719744.0, 1368064.0, 1286144.0, 1130496.0, 880640.0, 1368064.0, 1204224.0, 1753088.0, 1368064.0, 1286144.0, 688128.0, 827392.0, 569344.0]","[0.0, 0.0020366597454994917, 0.001894467044621706, 0.0013944667298346758, 0.0014630577061325312, 0.001561019103974104, 0.0014940238324925303, 0.0013828963274136186, 0.001172529300674796, 0.0023516237270087004, 0.0012833388755097985, 0.001560758100822568, 0.0016169501468539238, 0.0012873614905402064, 0.0009428730118088424, 0.0, 0.0009375689551234245, 0.0013377926079556346, 0.0008343995432369411, 0.0019809608347713947, 0.0008905215072445571, 0.0012778487289324403, 0.0014418010832741857, 0.0012199179036542773, 0.001433059573173523, 0.001280908822081983, 0.0019403481855988503, 0.00100778229534626, 0.0010498397750779986, 0.0010505943791940808, 0.000333314819727093, 0.0013834320707246661, 0.001997447805479169, 0.0015461071161553264, 0.0022362610325217247, 0.0009494554251432419, 0.00033515808172523975, 5.5700995289953426e-05, 0.001325454330071807, 0.0016225591534748673, 0.0007201418047770858, 0.0019967828411608934, 0.001163434935733676, 0.0005047106533311307, 0.0001667407777858898, 0.0006163155194371939, 0.0013400334864854813, 0.0012191743589937687, 0.0005074997316114604, 0.001273744273930788, 0.0006662965170107782, 0.0012283639516681433, 0.000780814269091934, 0.0010129432193934917, 0.0007733097299933434, 0.00016733600932639092, 0.0007214606739580631, 0.000444567936938256, 0.0002778395137283951, 0.00022088464174885303, 0.00016765396867413074, 0.001280908822081983, 0.0006140791811048985, 0.0014978365506976843, 0.000502288225106895, 0.00011044232087442651, 0.00027690091519616544, 0.0003330742765683681, 0.00027856705128215253, 0.00039047247264534235, 0.00016669444448780268, 0.0003332037595100701, 0.00022176637139637023, 5.551238064072095e-05, 0.00022203719709068537, 0.0002791892329696566, 0.0002215207350673154, 0.0007191458716988564, 5.568858978222124e-05, 0.00033240998163819313, 0.00016758841229602695, 0.00027670172858051956, 0.0007213405915535986, 0.0006078355363570154, 0.0005024564452469349, 0.0004475524474401027, 0.0004443457000888884, 0.000776182278059423, 0.0007758811698295176, 0.0004975124611519277, 0.00044277176493778825, 0.0002802376402541995, 0.00044368032831698656, 0.0005594092654064298, 0.0002243409981019795, 0.0003857386764138937, 0.0007149928715080023, 0.0003911925887223333, 0.0009516878053545952, 0.00038979839882813394, 0.0001672334037721157, 0.0007778209983371198, 0.000831209123134613, 0.0008301970665343106, 0.0006681142840534449, 0.0011092007625848055, 0.0011643379693850875, 0.0018877352122217417, 0.0011717441957443953, 0.0006645254325121641, 0.0010597946820780635, 0.0014070238685235381, 0.0005556790274567902, 0.0011723984498530626, 0.0009389671613462269, 0.0013371219392865896, 0.0010489124106243253, 0.0014425211120396852, 0.0012782039120793343, 0.0014461316168308258, 0.0012246033875271678, 0.002057498786598444, 0.0015635470626875758, 0.0017369865672662854, 0.0018427518662065268, 0.0014992504147812724, 0.001735236495733261, 0.0020111731719225645, 0.0016293965745717287, 0.001954542938619852, 0.001555728493258357, 0.0014446049463003874, 0.002503894967958331, 0.0017236585263162851, 0.0019560721702873707, 0.0023360587656497955, 0.0022752496879547834, 0.0023080387618392706, 0.002519879024475813, 0.0019374480471014977, 0.0016550810541957617, 0.0016092336736619473, 0.002226551529020071, 0.0022315201349556446, 0.0018304858822375536, 0.0016758840065449476, 0.0014873574255034328, 0.0016687061870470643, 0.00179131212644279, 0.0016249229665845633, 0.0021275405306369066, 0.002836011815816164, 0.0019547611009329557, 0.0015086327912285924, 0.002153982175514102, 0.001956400228664279, 0.0015020861756056547, 0.002116637770086527, 0.0023372287396341562, 0.0017323273932561278, 0.0013416064903140068, 0.002934499876573682, 0.002432820852845907, 0.002243158407509327, 0.002973568392917514, 0.002572850789874792, 0.00200803205370903, 0.0033213396091014147, 0.002332555828616023, 0.003580019110813737, 0.002841225592419505, 0.0026284882333129644, 0.00300651416182518, 0.003518416779115796, 0.0023402238730341196, 0.0038854351732879877, 0.003020134288817644, 0.0033513936214149, 0.0030509792268276215, 0.0038690140936523676, 0.0044211107306182384, 0.0037259480450302362, 0.0033105150796473026, 0.003392469836398959, 0.0038228018674999475, 0.003123779781162739, 0.0019247690215706825, 0.004330446477979422, 0.004329484887421131, 0.0031968250405043364, 0.0035419780761003494, 0.0037687746807932854, 0.0030555555131286383, 0.0035292820539325476, 0.003867189632728696, 0.0031309404876083136, 0.002982107223942876, 0.0035989147145301104, 0.0032573288772255182, 0.003606302896514535, 0.003695328487083316, 0.00344540155492723, 0.0036161334719508886, 0.002706733765080571, 0.0037625653203576803, 0.0031173457391560078, 0.003242034465074539, 0.0009423503652215004, 0.001542444690130651, 0.0015500442823395133, 0.0012162087950855494, 0.0038547487929463387, 0.00368139217607677, 0.0014504881110042334, 0.001672334037721157, 0.0045695179142057896, 0.004065040498971939, 0.0019922524224966764, 0.0015426997561007738, 0.0012229696149006486, 0.0011022926773875952, 0.0009386560996063054, 0.0010611560428515077, 0.001393767073750496, 0.0016175814671441913, 0.000896911253221333, 0.001717546721920371, 0.001001502270810306, 0.0012211367720738053, 0.0008318545296788216, 0.0011186933843418956, 0.003291492350399494, 0.001959138084203005, 0.0017873101169243455, 0.001553742797113955, 0.001441481406800449, 0.001602032920345664, 0.0026899799704551697, 0.0013929128181189299, 0.0009461264708079398, 0.0025384912732988596, 0.001289599109441042, 0.0014475808711722493, 0.0033958693966269493, 0.002983920043334365, 0.003559114644303918, 0.003790623974055052, 0.0034175582695752382, 0.003289290238171816, 0.0036750375293195248, 0.0036902399733662605, 0.003336484543979168, 0.0035368886310607195, 0.003920470364391804, 0.003933518193662167, 0.004288738127797842, 0.00442701019346714, 0.004732739645987749, 0.0042990343645215034, 0.004143875557929277, 0.004246047232300043, 0.004039497580379248, 0.003832268761470914, 0.005765286274254322, 0.005026248283684254, 0.0039873733185231686, 0.004026620648801327, 0.004244150593876839, 0.004675498232245445, 0.005215557757765055, 0.004730368964374065, 0.005965655669569969, 0.004723717458546162, 0.005295382812619209, 0.005256169009953737, 0.005406001582741737, 0.005099778529256582, 0.004474773537367582, 0.004141945857554674, 0.005553395953029394, 0.006388533860445023, 0.003916808869689703, 0.004580237902700901, 0.0044540949165821075, 0.005226868204772472, 0.004884276073426008, 0.004665111657232046, 0.00566729623824358, 0.0049526989459991455, 0.0037802979350090027, 0.0017314567230641842, 0.0005576001130975783, 0.000889729184564203, 0.0012813369976356626, 0.002051793970167637, 0.002627019304782152, 0.0037086240481585264, 0.0027731559239327908, 0.005340453702956438, 0.005487429443746805, 0.006495324429124594, 0.0050786640495061874, 0.005542930215597153, 0.007249584887176752, 0.006283712573349476, 0.006080371327698231, 0.005998333916068077, 0.005925679579377174, 0.005923442076891661, 0.006285072769969702, 0.00426474679261446, 0.005330490414053202, 0.005625173915177584, 0.0032593084033578634, 0.00530993239954114, 0.0038921323139220476, 0.0039016776718199253, 0.0060856458730995655, 0.006093129515647888, 0.00541053107008338, 0.005698794033378363, 0.0051847766153514385, 0.005568238906562328, 0.005154353566467762, 0.00495431013405323, 0.0037117055617272854, 0.005188574083149433, 0.004618809092789888, 0.006176961585879326, 0.005520240869373083, 0.005140526220202446, 0.005772720091044903, 0.005655982997268438, 0.005876482930034399, 0.005507649388164282, 0.006116713397204876, 0.004512534476816654, 0.006036658771336079, 0.007037570234388113, 0.005499694496393204, 0.005239355843514204, 0.006112469360232353, 0.004630920942872763, 0.004465033300220966, 0.005391428712755442, 0.005098365247249603, 0.0038886726833879948, 0.003662190632894635, 0.004579562693834305, 0.0049291434697806835, 0.005280711222440004, 0.004844367504119873, 0.005187126807868481, 0.0050623053684830666, 0.00618151156231761, 0.005396383814513683, 0.0049433461390435696, 0.004601907450705767, 0.0050855036824941635, 0.0051233503036201, 0.005557408090680838, 0.0053653409704566, 0.005936858709901571, 0.005937187932431698, 0.0048633236438035965, 0.004951596725732088, 0.005010019987821579, 0.005065123084932566, 0.005383206531405449, 0.004583609290421009, 0.004419580567628145, 0.005203961860388517, 0.004454955458641052, 0.005873140413314104, 0.005448682699352503, 0.004171301145106554, 0.00422222213819623, 0.005802707746624947, 0.005382372997701168, 0.00534104835242033, 0.004881837405264378, 0.004866044037044048, 0.0049905735068023205, 0.005383804440498352, 0.00490141473710537, 0.0056868866086006165, 0.005384999793022871, 0.005379922688007355, 0.005698960740119219, 0.0052692885510623455, 0.004083231091499329, 0.0052889431826770306, 0.005083153955638409, 0.004715429153293371, 0.0045730858109891415, 0.00357941840775311, 0.004321329761296511, 0.004562653135508299, 0.005165637005120516, 0.006054546218365431, 0.005481424275785685, 0.005670131649821997, 0.005335704889148474, 0.005220192018896341, 0.0049373130314052105, 0.005101474933326244, 0.004947742912918329, 0.005024564452469349, 0.0047159343957901, 0.004718290641903877, 0.005216136574745178, 0.005218453239649534, 0.005528832785785198, 0.005256169009953737, 0.005746164359152317, 0.004529947880655527, 0.004786819685250521, 0.0054029966704547405, 0.005931921303272247, 0.00528335478156805, 0.005921126343309879, 0.005815253593027592, 0.00610907468944788, 0.005813631694763899, 0.005345530807971954, 0.005172989331185818, 0.005790866911411285, 0.0055159348994493484, 0.004992146976292133, 0.0051345014944672585, 0.004644476342946291, 0.00493190623819828, 0.004956284537911415, 0.004285311326384544, 0.005291594658046961, 0.005469971336424351, 0.005204872693866491, 0.005442026071250439, 0.005433577578514814, 0.00565984845161438, 0.005862507503479719, 0.004439758136868477, 0.004804241005331278, 0.004579815547913313, 0.006420901045203209, 0.006350974552333355, 0.006124813575297594, 0.005450500175356865, 0.005304891616106033, 0.0056550949811935425, 0.005166822578758001, 0.004600632004439831, 0.005696272477507591, 0.006242684088647366, 0.004622925538569689, 0.004334055352956057, 0.005527329631149769, 0.006251395680010319, 0.00626872293651104, 0.005825566127896309, 0.006855804938822985, 0.005723494105041027, 0.004993065260350704, 0.004976237192749977, 0.0044291880913078785, 0.005219612270593643, 0.004405040759593248, 0.004778043366968632, 0.00584599981084466, 0.005490239709615707, 0.00572635792195797, 0.004694048315286636, 0.005019858945161104, 0.003789145266637206, 0.0040903231129050255, 0.00391962006688118, 0.0040085818618535995, 0.005034964997321367, 0.006247580982744694, 0.004485794808715582, 0.005884941201657057, 0.005017002113163471, 0.006182206328958273, 0.004533893428742886, 0.0048462566919624805, 0.0054411194287240505, 0.004817657172679901, 0.005736563820391893, 0.005993340630084276, 0.005003613885492086, 0.005480513442307711, 0.005295724608004093, 0.004757906775921583, 0.005680236034095287, 0.005716527346521616, 0.005552751012146473, 0.004545958712697029, 0.00506146065890789, 0.004685930907726288, 0.0065643079578876495, 0.005812665913254023, 0.005821689963340759, 0.0069343470968306065, 0.00575001398101449, 0.006975057069212198, 0.006284454371780157, 0.0058664013631641865, 0.006415620446205139, 0.006502528674900532, 0.006703601218760014, 0.006436934694647789, 0.006227065809071064, 0.006382860708981752, 0.006852367427200079, 0.0063676475547254086, 0.006196963135153055, 0.006856131833046675, 0.005821367260068655, 0.0051034558564424515, 0.005788389593362808, 0.006062291096895933, 0.006465517450124025, 0.006069380324333906, 0.005600672215223312, 0.006783807650208473, 0.007379050366580486, 0.005768804345279932, 0.006866521667689085, 0.006172153167426586, 0.007079152390360832, 0.006164685357362032, 0.007515448611229658, 0.006989543326199055, 0.005518394522368908, 0.006882770918309689, 0.005916832480579615, 0.005688155069947243, 0.006462755613029003, 0.00587713485583663, 0.0048554399982094765, 0.0052508097141981125, 0.005284236278384924, 0.007273541297763586, 0.006863073445856571, 0.006760532036423683, 0.006081379950046539, 0.006406328175216913, 0.005861859302967787, 0.006326987408101559, 0.005582886748015881, 0.005168102215975523, 0.00503271259367466, 0.0062589216977357864, 0.004005563445389271, 0.004826630000025034, 0.005237045232206583, 0.005437496583908796, 0.005503668915480375, 0.005297495983541012, 0.005934392102062702, 0.007001624442636967, 0.006503974553197622, 0.005629450082778931, 0.006061607971787453, 0.006280991714447737, 0.0057609486393630505, 0.0073438724502921104, 0.005065521690994501, 0.0059737819246947765, 0.005872576031833887, 0.004603949375450611, 0.005784486886113882, 0.005719045177102089, 0.0061738695949316025, 0.005827505607157946, 0.00637825857847929, 0.006262580864131451, 0.007211135234683752, 0.006447310093790293, 0.006046694237738848, 0.0064173489809036255, 0.00577645655721426, 0.005593088921159506, 0.00699300691485405, 0.006243093870580196, 0.007264862768352032, 0.005938375368714333, 0.005364571698009968, 0.0069721112959086895, 0.006362027022987604, 0.006725585088133812, 0.005498821381479502, 0.005260826088488102, 0.00505106570199132, 0.005603472236543894, 0.005838198587298393, 0.005749371834099293, 0.006828401703387499, 0.0059676519595086575, 0.006300431210547686, 0.0054960306733846664, 0.004872038960456848, 0.004497751127928495, 0.005158070009201765, 0.004003336187452078, 0.005651595536619425, 0.004549237433820963, 0.0054602185264229774, 0.0039873733185231686, 0.005576622672379017, 0.005016722250729799, 0.003716028993949294, 0.004190098028630018, 0.003808243665844202, 0.003143595065921545, 0.004517732188105583, 0.004171997774392366, 0.003859708085656166, 0.004721959587186575, 0.004204935394227505, 0.00573720270767808, 0.004435819108039141, 0.004734321031719446, 0.0038435827009379864, 0.005129619501531124, 0.005161218345165253, 0.004902233835309744, 0.005242536310106516, 0.0039019566029310226, 0.003877471899613738, 0.004850039258599281, 0.0037796676624566317, 0.003810049733147025, 0.005030959844589233, 0.003346347017213702, 0.004484556149691343, 0.004155585076659918, 0.005238519981503487, 0.0044240448623895645, 0.004011429846286774, 0.0049654096364974976, 0.004654031712561846, 0.005218163598328829, 0.004842749796807766, 0.004555049352347851, 0.0049865529872477055, 0.0044123325496912, 0.004288021475076675, 0.0051752920262515545, 0.005328301340341568, 0.00479048490524292, 0.005005840212106705, 0.004604672081768513, 0.005893473047763109, 0.004529441241174936, 0.005033464170992374, 0.006492065265774727, 0.005298973526805639, 0.00467575853690505, 0.005619227886199951, 0.0062713478691875935, 0.004623768385499716, 0.004476622212678194, 0.00389494770206511, 0.004620351828634739, 0.005705422721803188, 0.005060897674411535, 0.004800000227987766, 0.005235893651843071, 0.005312010645866394, 0.005529799498617649, 0.005063012707978487, 0.006268375553190708, 0.005541871767491102, 0.004542684648185968, 0.0043633924797177315, 0.00467627914622426, 0.0044975015334784985, 0.005607684142887592, 0.005612669978290796, 0.005046823527663946, 0.0066941874101758, 0.006494948640465736, 0.005346402060240507, 0.005623294971883297, 0.006036774255335331, 0.006630265153944492, 0.0047743297182023525, 0.005918468814343214, 0.005897407419979572, 0.006592547055333853, 0.005662140436470509, 0.0064134737476706505, 0.0060411239974200726, 0.00651302607730031, 0.005651595536619425, 0.006278824061155319, 0.005397284869104624, 0.004871837329119444, 0.005880721379071474, 0.005328397732228041, 0.006106700748205185, 0.005313793662935495, 0.005447470583021641, 0.005105155054479837, 0.00647538248449564, 0.006071645300835371, 0.00463652890175581, 0.005425966344773769, 0.005973982624709606, 0.005009183660149574, 0.00405150419101119, 0.0054687499068677425, 0.0048360200598835945, 0.0059391651302576065, 0.005105155054479837, 0.005448241718113422, 0.005052187480032444, 0.004883733578026295, 0.004556061699986458, 0.005667926277965307, 0.005395584739744663, 0.0047958954237401485, 0.005319148767739534, 0.0049797529354691505, 0.0048823789693415165, 0.003951689228415489, 0.0038506612181663513, 0.004972067195922136, 0.004320372361689806, 0.0050676618702709675, 0.005231479182839394, 0.005549016408622265, 0.005823950283229351, 0.004272318910807371, 0.00534431915730238, 0.0055303615517914295, 0.005918480921536684, 0.006049170158803463, 0.005450500175356865, 0.005141388159245253, 0.005750334821641445, 0.005822089966386557, 0.006426236592233181, 0.006003335118293762, 0.005468444898724556, 0.0053179701790213585, 0.0048637595027685165, 0.0076647368259727955, 0.005634588655084372, 0.006021433975547552, 0.004680447746068239, 0.006310733966529369, 0.006280569359660149, 0.006554989144206047, 0.00618453323841095, 0.006595721002668142, 0.004788151942193508, 0.005216136574745178, 0.005136221647262573, 0.005109975580126047, 0.006079196929931641, 0.005371282808482647, 0.004994727671146393, 0.004648589063435793, 0.004494755994528532, 0.005230649374425411, 0.0055450815707445145, 0.005206292029470205, 0.005122209433466196, 0.004443703684955835, 0.005668106954544783, 0.005849244073033333, 0.005833520088344812, 0.00530826672911644, 0.005820076446980238, 0.005363727919757366, 0.006551915779709816, 0.005788067821413279, 0.0052080415189266205, 0.004666666500270367, 0.004943968262523413, 0.004715672694146633, 0.0041368515230715275, 0.004821814596652985, 0.004368524067103863, 0.005194659810513258, 0.005418994463980198, 0.005534953437745571, 0.005416573956608772, 0.0057165054604411125, 0.006368015892803669, 0.005729712080210447, 0.0063942172564566135, 0.006209790240973234, 0.006490292027592659, 0.005318854469805956, 0.006407042499631643, 0.0053882901556789875, 0.006203543394804001, 0.004498573485761881, 0.0049814581871032715, 0.005184235516935587, 0.005439005326479673, 0.006237924564629793, 0.005456570070236921, 0.006192293018102646, 0.004866180010139942, 0.00525500625371933, 0.005225810222327709, 0.005135000683367252, 0.004342017229646444, 0.004973199684172869, 0.005421114154160023, 0.005529444199055433, 0.005668556317687035, 0.005844697821885347, 0.0057677230797708035, 0.006102296989411116, 0.006072761956602335, 0.005234144162386656, 0.0040884907357394695, 0.005354453809559345, 0.0052998606115579605, 0.005375748034566641, 0.005549697205424309, 0.005263741128146648, 0.005424254108220339, 0.006675862241536379, 0.005542622413486242, 0.005009462591260672, 0.005408985540270805, 0.005659651942551136, 0.005662891548126936, 0.005504893139004707, 0.004951321054250002, 0.006061953958123922, 0.0051523298025131226, 0.005033464170992374, 0.006606573238968849, 0.005256460048258305, 0.005489022005349398, 0.005974649451673031, 0.006008679047226906, 0.005797747988253832, 0.005077543202787638, 0.0057668848894536495, 0.005162364803254604, 0.006099251564592123, 0.006497472990304232, 0.004805036820471287, 0.0047151497565209866, 0.0052248346619307995, 0.005494813434779644, 0.005075862165540457, 0.006521375384181738, 0.004784422926604748, 0.00626872293651104, 0.005684954114258289, 0.005699916277080774, 0.006684344261884689, 0.006451253779232502, 0.00630545150488615, 0.005511635914444923, 0.0060775019228458405, 0.006230529397726059, 0.005349977873265743, 0.00426474679261446, 0.005437496583908796, 0.00555679015815258, 0.00671065878123045, 0.006363787222653627, 0.006388533860445023, 0.005779698025435209, 0.00395734841004014, 0.006535582710057497, 0.0048368265852332115, 0.004775920417159796, 0.004183633718639612, 0.004467526916414499, 0.004926660098135471, 0.005511329043656588, 0.0048053027130663395, 0.003803958185017109, 0.004468275234103203, 0.004557327833026648, 0.0048807542771101, 0.00514196278527379, 0.005013927351683378, 0.00575284892693162, 0.004768770188093185, 0.004947468172758818, 0.005720950663089752, 0.005481424275785685, 0.006195579655468464, 0.005193944089114666, 0.004765863064676523, 0.005442026071250439, 0.006382860708981752, 0.006205623969435692, 0.004830113146454096, 0.0055472347885370255, 0.005298087373375893, 0.0044390191324055195, 0.005513784475624561, 0.006340025458484888, 0.004716196097433567, 0.0050825923681259155, 0.006634701043367386, 0.004869950469583273, 0.0053520193323493, 0.0054938956163823605, 0.005042299162596464, 0.004065719898790121, 0.005178750026971102, 0.0054747555404901505, 0.005156354047358036, 0.006555555853992701, 0.0063453190959990025, 0.005174716468900442, 0.0058388477191329, 0.005030681844800711, 0.005580357275903225, 0.0051162270829081535, 0.005283942446112633, 0.005651908926665783, 0.0049980562180280685, 0.0060783554799854755, 0.0062963166274130344, 0.005496354307979345, 0.005193499848246574, 0.0055716512724757195, 0.005447342526167631, 0.005402093753218651, 0.0059756506234407425, 0.0057599819265306, 0.004818609915673733, 0.004214495420455933, 0.004610342904925346, 0.004839685279875994, 0.004950219765305519, 0.005414759740233421, 0.004755059257149696, 0.005436893552541733, 0.0040077930316329, 0.0043014357797801495, 0.0036250068806111813, 0.005038480740040541, 0.005490544252097607, 0.005107705947011709, 0.006227907724678516, 0.005362529307603836, 0.004845986608415842, 0.005989700090140104, 0.005263741128146648, 0.0055716512724757195, 0.005582886748015881, 0.005754758603870869, 0.004753383342176676, 0.005516549572348595, 0.006153675727546215, 0.006038781255483627, 0.0052544246427714825, 0.006049842108041048, 0.005724448245018721, 0.006376489996910095, 0.006124380510300398, 0.005260534584522247, 0.005155496299266815, 0.0051552108488976955, 0.005401234608143568, 0.005117650609463453, 0.00543996412307024, 0.005292172078043222, 0.005328892730176449, 0.004755584988743067, 0.004591723904013634, 0.005118789151310921, 0.003975363913923502, 0.005284530110657215, 0.00498047424480319, 0.005640033166855574, 0.005768692120909691, 0.005942793563008308, 0.005260212812572718, 0.005138121545314789, 0.005613917950540781, 0.005515012890100479, 0.006834092549979687, 0.005945765879005194, 0.005862646270543337, 0.005589402746409178, 0.006097219884395599, 0.0058727203868329525, 0.005250939633697271, 0.006755248177796602, 0.00677112489938736, 0.0050986106507480145, 0.004415381234139204, 0.005356844048947096, 0.005267827305942774, 0.004755776841193438, 0.004159141797572374, 0.00510827312245965, 0.005899704992771149, 0.005389927886426449, 0.005644034594297409, 0.005934553686529398, 