last_val_loss,dataset,ul2,causal_denoisers,noncausal_masking,causal_divider,s_divider,r_divider,x_divider,randomize_denoiser_settings,randomize_mask_width,no_special_tokens,alternate_denoisers,progressive_tasks,model_scale,depth,width,num_params,num_non_embedding_params,num_heads,linear_value,seed,run_num,max_epochs,max_steps,max_tokens,max_time_seconds,gpu_capacity_scalar,train_loss_causal,train_pplx_causal,train_acc_causal,train_loss_s,train_pplx_s,train_loss_r,train_pplx_r,train_loss_x,train_pplx_x,train_acc_x_causal,train_acc_r_causal,train_acc_s_causal,train_acc_x_masked,train_acc_r_masked,train_acc_s_masked,val_loss_causal,val_pplx_causal,val_acc_causal,val_loss_s,val_pplx_s,val_loss_r,val_pplx_r,val_loss_x,val_pplx_x,grad_norm,cumulative_time,tokens_seen,epoch,batch_size,seq_length,learning_rate,weight_decay
3.71875,fineweb,true,true,false,1000.0,1000.0,1.0,1000.0,true,true,true,true,false,1.0001001527155036,8,384,46014344,7376264,6,false,1600,1,1.0,1000000000,1000000000000,1000000000,1.9,"[10.9375, 6.875, 6.46875, 6.28125, 6.15625, 6.0, 6.0, 5.78125, 5.65625, 5.71875, 5.65625, 5.5, 5.375, 5.4375, 5.34375, 5.28125, 5.3125, 5.21875, 5.25, 5.15625, 5.0625, 5.09375, 5.03125, 5.0, 4.96875, 5.0625, 4.96875, 4.9375, 4.9375, 4.9375, 4.8125, 4.8125, 4.78125, 4.875, 4.78125, 4.8125, 4.75, 4.71875, 4.6875, 4.6875, 4.65625, 4.71875, 4.6875, 4.6875, 4.65625, 4.6875, 4.65625, 4.65625, 4.65625, 4.625, 4.625, 4.625, 4.53125, 4.5, 4.625, 4.625, 4.53125, 4.59375, 4.5625, 4.59375, 4.59375, 4.53125, 4.5, 4.5, 4.53125, 4.53125, 4.5625, 4.40625, 4.46875, 4.5, 4.5625, 4.46875, 4.5, 4.4375, 4.53125, 4.40625, 4.40625, 4.46875, 4.5, 4.5, 4.4375, 4.46875, 4.40625, 4.375, 4.34375, 4.40625, 4.375, 4.46875, 4.375, 4.375, 4.375, 4.34375, 4.3125, 4.28125, 4.3125, 4.3125, 4.28125, 4.1875, 4.1875, 4.25, 4.1875, 4.28125, 4.28125, 4.1875, 4.15625, 4.25, 4.15625, 4.21875, 4.21875, 4.21875, 4.15625, 4.15625, 4.21875, 4.125, 4.15625, 4.125, 4.15625, 4.1875, 4.15625, 4.1875, 4.21875, 4.0625, 4.125, 4.1875, 4.0625, 4.21875, 4.125, 4.1875, 4.125, 4.03125, 4.125, 4.0625, 4.125, 4.0, 4.0625, 4.09375, 4.03125, 4.0625, 4.09375, 4.03125, 4.0625, 4.125, 4.03125, 4.0625, 4.0625, 4.03125, 4.03125, 3.96875, 4.03125, 4.03125, 3.9375, 4.0625, 4.0, 3.953125, 4.0, 4.0, 4.03125, 3.9375, 3.90625, 3.96875, 4.0, 4.0, 4.0, 3.984375, 3.84375, 3.9375, 3.953125, 4.0625, 3.90625, 3.9375, 3.890625, 3.953125, 3.890625, 3.890625, 3.9375, 3.890625, 3.9375, 3.953125, 3.90625, 3.953125, 3.953125, 3.84375, 3.90625, 3.8125, 3.921875, 3.890625, 3.921875, 3.859375, 3.890625, 3.75, 3.84375, 3.8125, 3.796875, 3.875, 3.828125, 3.890625, 3.8125, 3.8125, 3.78125, 3.734375, 3.765625, 3.78125, 3.84375, 3.828125, 3.828125, 3.765625, 3.765625, 3.765625, 3.796875, 3.796875, 3.78125, 3.75, 3.78125, 3.75, 3.734375, 3.78125, 3.75, 3.734375, 3.765625, 3.75, 3.796875, 3.734375, 3.828125, 3.796875, 3.765625, 3.734375, 3.59375, 3.703125, 3.8125, 3.671875, 3.703125, 3.765625, 3.71875, 3.796875, 3.6875, 3.734375, 3.734375, 3.671875, 3.703125, 3.609375, 3.796875, 3.703125, 3.703125, 3.6875, 3.71875, 3.734375, 3.71875, 3.65625, 3.671875, 3.703125, 3.609375, 3.625, 3.734375]","[56320.0, 968.0, 644.0, 536.0, 472.0, 404.0, 404.0, 324.0, 286.0, 304.0, 286.0, 245.0, 216.0, 230.0, 209.0, 197.0, 203.0, 185.0, 191.0, 174.0, 158.0, 163.0, 153.0, 149.0, 144.0, 158.0, 144.0, 140.0, 140.0, 140.0, 123.0, 123.0, 119.5, 131.0, 119.5, 123.0, 115.5, 112.0, 108.5, 108.5, 105.5, 112.0, 108.5, 108.5, 105.5, 108.5, 105.5, 105.5, 105.5, 102.0, 102.0, 102.0, 93.0, 90.0, 102.0, 102.0, 93.0, 99.0, 96.0, 99.0, 99.0, 93.0, 90.0, 90.0, 93.0, 93.0, 96.0, 82.0, 87.5, 90.0, 96.0, 87.5, 90.0, 84.5, 93.0, 82.0, 82.0, 87.5, 90.0, 90.0, 84.5, 87.5, 82.0, 79.5, 77.0, 82.0, 79.5, 87.5, 79.5, 79.5, 79.5, 77.0, 74.5, 72.5, 74.5, 74.5, 72.5, 66.0, 66.0, 70.0, 66.0, 72.5, 72.5, 66.0, 64.0, 70.0, 64.0, 68.0, 68.0, 68.0, 64.0, 64.0, 68.0, 62.0, 64.0, 62.0, 64.0, 66.0, 64.0, 66.0, 68.0, 58.25, 62.0, 66.0, 58.25, 68.0, 62.0, 66.0, 62.0, 56.25, 62.0, 58.25, 62.0, 54.75, 58.25, 60.0, 56.25, 58.25, 60.0, 56.25, 58.25, 62.0, 56.25, 58.25, 58.25, 56.25, 56.25, 53.0, 56.25, 56.25, 51.25, 58.25, 54.75, 52.25, 54.75, 54.75, 56.25, 51.25, 49.75, 53.0, 54.75, 54.75, 54.75, 53.75, 46.75, 51.25, 52.25, 58.25, 49.75, 51.25, 49.0, 52.25, 49.0, 49.0, 51.25, 49.0, 51.25, 52.25, 49.75, 52.25, 52.25, 46.75, 49.75, 45.25, 50.5, 49.0, 50.5, 47.5, 49.0, 42.5, 46.75, 45.25, 44.5, 48.25, 46.0, 49.0, 45.25, 45.25, 44.0, 42.0, 43.25, 44.0, 46.75, 46.0, 46.0, 43.25, 43.25, 43.25, 44.5, 44.5, 44.0, 42.5, 44.0, 42.5, 42.0, 44.0, 42.5, 42.0, 43.25, 42.5, 44.5, 42.0, 46.0, 44.5, 43.25, 42.0, 36.5, 40.5, 45.25, 39.25, 40.5, 43.25, 41.25, 44.5, 40.0, 42.0, 42.0, 39.25, 40.5, 37.0, 44.5, 40.5, 40.5, 40.0, 41.25, 42.0, 41.25, 38.75, 39.25, 40.5, 37.0, 37.5, 42.0]","[9.212853910867125e-06, 0.08514519780874252, 0.08951208740472794, 0.10295364260673523, 0.10191258788108826, 0.10442770272493362, 0.10748636722564697, 0.12014482915401459, 0.11598983407020569, 0.12161888182163239, 0.11553840339183807, 0.12706367671489716, 0.13316258788108826, 0.12366414070129395, 0.1325729638338089, 0.1257646679878235, 0.13274800777435303, 0.1394273340702057, 0.1296709179878235, 0.1425504833459854, 0.14270710945129395, 0.1388929784297943, 0.13638709485530853, 0.15856242179870605, 0.15074071288108826, 0.1423293799161911, 0.1506209522485733, 0.1513579785823822, 0.1484375, 0.15368883311748505, 0.1398695409297943, 0.15733711421489716, 0.15010502934455872, 0.14151865243911743, 0.15816627442836761, 0.15609338879585266, 0.1579451709985733, 0.1657760888338089, 0.15851636230945587, 0.1787017285823822, 0.14762677252292633, 0.1533387452363968, 0.15253722667694092, 0.15704230964183807, 0.16364791989326477, 0.1625700145959854, 0.1743256151676178, 0.14933115243911743, 0.1525740772485733, 0.1537993848323822, 0.15935473144054413, 0.1616118848323822, 0.16780291497707367, 0.16326098144054413, 0.14885208010673523, 0.16180534660816193, 0.15754900872707367, 0.1569962501525879, 0.16301223635673523, 0.14589475095272064, 0.15391914546489716, 0.17278707027435303, 0.1667618751525879, 0.1611420214176178, 0.15589991211891174, 0.15714365243911743, 0.16583137214183807, 0.1672501564025879, 0.18273696303367615, 0.17300818860530853, 0.15976010262966156, 0.17665646970272064, 0.1665131151676178, 0.16076430678367615, 0.1508881151676178, 0.17656435072422028, 0.16549049317836761, 0.16320571303367615, 0.17276865243911743, 0.16839253902435303, 0.1508696973323822, 0.16415463387966156, 0.15810178220272064, 0.16877026855945587, 0.18683667480945587, 0.1796782910823822, 0.16514040529727936, 0.16959021985530853, 0.1665131151676178, 0.17450988292694092, 0.1770065575838089, 0.16015625, 0.19789209961891174, 0.17077867686748505, 0.17572598159313202, 0.16411778330802917, 0.18322524428367615, 0.18122604489326477, 0.19077056646347046, 0.18636682629585266, 0.17426113784313202, 0.18070091307163239, 0.19610480964183807, 0.18294885754585266, 0.16617225110530853, 0.1853073388338089, 0.17826871573925018, 0.17392946779727936, 0.1787385791540146, 0.17102742195129395, 0.16350972652435303, 0.18706700205802917, 0.1984633058309555, 0.19438201189041138, 0.18281987309455872, 0.18989534676074982, 0.19131413102149963, 0.17535746097564697, 0.18734338879585266, 0.1782502979040146, 0.18829230964183807, 0.20741818845272064, 0.1884857714176178, 0.17984412610530853, 0.18209205567836761, 0.1696639209985733, 0.18809883296489716, 0.18513229489326477, 0.1926039308309555, 0.17313715815544128, 0.16859522461891174, 0.19645489752292633, 0.18829230964183807, 0.19274210929870605, 0.19367261230945587, 0.19155365228652954, 0.19596661627292633, 0.20721550285816193, 0.18408203125, 0.1943543702363968, 0.18305020034313202, 0.18411888182163239, 0.18247899413108826, 0.19418853521347046, 0.18765662610530853, 0.18788693845272064, 0.19535857439041138, 0.19769863784313202, 0.19174712896347046, 0.1826171875, 0.18438605964183807, 0.1953125, 0.1962890625, 0.2065153270959854, 0.19273290038108826, 0.21058741211891174, 0.1982237696647644, 0.17444539070129395, 0.19686947762966156, 0.19775390625, 0.18323445320129395, 0.20380675792694092, 0.2038804590702057, 0.19319353997707367, 0.19795659184455872, 0.18545475602149963, 0.20839475095272064, 0.1843307763338089, 0.20682856440544128, 0.20307894051074982, 0.2131117433309555, 0.19768020510673523, 0.2119232714176178, 0.19498084485530853, 0.20123636722564697, 0.2089659571647644, 0.2102004736661911, 0.18510466814041138, 0.20055462419986725, 0.19159972667694092, 0.19938458502292633, 0.2009231299161911, 0.20052698254585266, 0.2028486132621765, 0.20964770019054413, 0.19221697747707367, 0.19732090830802917, 0.20590728521347046, 0.19225382804870605, 0.21235628426074982, 0.19377395510673523, 0.2116468995809555, 0.20107053220272064, 0.2126326709985733, 0.21038472652435303, 0.2102189064025879, 0.20588885247707367, 0.20203788578510284, 0.22041752934455872, 0.2155992090702057, 0.22623084485530853, 0.20222213864326477, 0.19057708978652954, 0.20556640625, 0.19253943860530853, 0.1965654492378235, 0.19613245129585266, 0.20453457534313202, 0.21854731440544128, 0.19866597652435303, 0.19925560057163239, 0.19025464355945587, 0.22550302743911743, 0.20369620621204376, 0.19103774428367615, 0.21549786627292633, 0.20575988292694092, 0.23225603997707367, 0.2097214013338089, 0.19004274904727936, 0.19713664054870605, 0.22819317877292633, 0.21152712404727936, 0.21642836928367615, 0.21371057629585266, 0.1965562403202057, 0.20903044939041138, 0.21251289546489716, 0.21911852061748505, 0.2184828370809555, 0.21867629885673523, 0.21594929695129395, 0.22209426760673523, 0.20448850095272064, 0.22177182137966156, 0.18807120621204376, 0.21494509279727936, 0.2236604541540146, 0.21934883296489716, 0.20891988277435303, 0.21397773921489716, 0.21493588387966156, 0.20886461436748505, 0.22600051760673523, 0.20786961913108826, 0.2085145264863968, 0.21125994622707367, 0.21665868163108826, 0.2067640870809555, 0.20586122572422028, 0.22002138197422028, 0.20121794939041138, 0.2111678272485733]","[10.9375, 7.0, 6.625, 6.53125, 6.53125, 6.40625, 6.625, 6.40625, 6.09375, 6.25, 6.34375, 6.03125, 6.0625, 6.0625, 6.03125, 5.84375, 5.90625, 5.6875, 5.75, 5.78125, 5.71875, 5.8125, 5.5, 5.6875, 5.59375, 5.625, 5.5625, 5.53125, 5.5625, 5.6875, 5.3125, 5.46875, 5.46875, 5.5, 5.4375, 5.625, 5.375, 5.4375, 5.34375, 5.4375, 5.25, 5.40625, 5.3125, 5.34375, 5.375, 5.34375, 5.46875, 5.28125, 5.1875, 5.375, 5.28125, 5.34375, 5.34375, 5.15625, 5.28125, 5.375, 5.21875, 5.25, 5.28125, 5.25, 5.21875, 5.28125, 5.125, 5.125, 5.21875, 5.25, 5.28125, 5.09375, 5.40625, 5.375, 5.21875, 5.1875, 5.21875, 5.1875, 5.0625, 5.03125, 5.0625, 5.25, 5.1875, 5.125, 5.03125, 5.1875, 5.0625, 5.0625, 5.09375, 5.21875, 5.0625, 5.0625, 5.0625, 5.03125, 5.15625, 4.9375, 5.125, 4.90625, 5.09375, 5.0, 5.0625, 5.0, 4.96875, 5.0, 4.8125, 5.03125, 5.15625, 4.9375, 4.6875, 5.0, 4.84375, 4.875, 4.9375, 4.875, 4.78125, 4.84375, 4.9375, 4.9375, 4.8125, 4.90625, 4.96875, 4.78125, 4.875, 4.8125, 4.96875, 4.8125, 4.875, 4.875, 4.8125, 4.96875, 4.875, 5.03125, 4.875, 4.5625, 4.6875, 4.75, 4.65625, 4.71875, 4.71875, 4.8125, 4.8125, 4.875, 4.84375, 4.8125, 4.75, 4.8125, 4.59375, 4.84375, 4.84375, 4.78125, 4.625, 4.5625, 4.59375, 4.59375, 4.4375, 4.78125, 4.71875, 4.65625, 4.65625, 4.71875, 4.75, 4.40625, 4.59375, 4.625, 4.6875, 4.78125, 4.75, 4.65625, 4.5, 4.625, 4.6875, 4.6875, 4.6875, 4.71875, 4.4375, 4.4375, 4.46875, 4.5, 4.5625, 4.4375, 4.59375, 4.59375, 4.53125, 4.5625, 4.6875, 4.40625, 4.5625, 4.375, 4.71875, 4.46875, 4.59375, 4.46875, 4.46875, 4.53125, 4.59375, 4.625, 4.46875, 4.59375, 4.4375, 4.375, 4.25, 4.21875, 4.25, 4.1875, 4.3125, 4.21875, 4.1875, 4.28125, 4.25, 4.21875, 4.125, 4.125, 4.25, 4.1875, 4.1875, 4.125, 4.3125, 4.1875, 4.15625, 4.21875, 4.15625, 4.21875, 4.25, 4.09375, 4.15625, 4.28125, 4.28125, 4.28125, 4.1875, 4.15625, 4.0, 4.1875, 4.375, 4.1875, 4.1875, 4.34375, 4.1875, 4.28125, 4.1875, 4.09375, 4.1875, 4.125, 4.15625, 4.0, 4.25, 4.15625, 4.1875, 4.1875, 4.125, 4.21875, 4.21875, 4.125, 4.15625, 4.1875, 4.125, 4.0625, 4.28125]","[56320.0, 1096.0, 756.0, 688.0, 688.0, 608.0, 756.0, 608.0, 444.0, 520.0, 568.0, 416.0, 430.0, 430.0, 416.0, 346.0, 368.0, 296.0, 314.0, 324.0, 304.0, 334.0, 245.0, 296.0, 270.0, 278.0, 260.0, 253.0, 260.0, 296.0, 203.0, 237.0, 237.0, 245.0, 230.0, 278.0, 216.0, 230.0, 209.0, 230.0, 191.0, 223.0, 203.0, 209.0, 216.0, 209.0, 237.0, 197.0, 179.0, 216.0, 197.0, 209.0, 209.0, 174.0, 197.0, 216.0, 185.0, 191.0, 197.0, 191.0, 185.0, 197.0, 168.0, 168.0, 185.0, 191.0, 197.0, 163.0, 223.0, 216.0, 185.0, 179.0, 185.0, 179.0, 158.0, 153.0, 158.0, 191.0, 179.0, 168.0, 153.0, 179.0, 158.0, 158.0, 163.0, 185.0, 158.0, 158.0, 158.0, 153.0, 174.0, 140.0, 168.0, 135.0, 163.0, 149.0, 158.0, 149.0, 144.0, 149.0, 123.0, 153.0, 174.0, 140.0, 108.5, 149.0, 127.0, 131.0, 140.0, 131.0, 119.5, 127.0, 140.0, 140.0, 123.0, 135.0, 144.0, 119.5, 131.0, 123.0, 144.0, 123.0, 131.0, 131.0, 123.0, 144.0, 131.0, 153.0, 131.0, 96.0, 108.5, 115.5, 105.5, 112.0, 112.0, 123.0, 123.0, 131.0, 127.0, 123.0, 115.5, 123.0, 99.0, 127.0, 127.0, 119.5, 102.0, 96.0, 99.0, 99.0, 84.5, 119.5, 112.0, 105.5, 105.5, 112.0, 115.5, 82.0, 99.0, 102.0, 108.5, 119.5, 115.5, 105.5, 90.0, 102.0, 108.5, 108.5, 108.5, 112.0, 84.5, 84.5, 87.5, 90.0, 96.0, 84.5, 99.0, 99.0, 93.0, 96.0, 108.5, 82.0, 96.0, 79.5, 112.0, 87.5, 99.0, 87.5, 87.5, 93.0, 99.0, 102.0, 87.5, 99.0, 84.5, 79.5, 70.0, 68.0, 70.0, 66.0, 74.5, 68.0, 66.0, 72.5, 70.0, 68.0, 62.0, 62.0, 70.0, 66.0, 66.0, 62.0, 74.5, 66.0, 64.0, 68.0, 64.0, 68.0, 70.0, 60.0, 64.0, 72.5, 72.5, 72.5, 66.0, 64.0, 54.75, 66.0, 79.5, 66.0, 66.0, 77.0, 66.0, 72.5, 66.0, 60.0, 66.0, 62.0, 64.0, 54.75, 70.0, 64.0, 66.0, 66.0, 62.0, 68.0, 68.0, 62.0, 64.0, 66.0, 62.0, 58.25, 72.5]","[10.9375, 7.0, 6.625, 6.5, 6.34375, 6.21875, 6.21875, 6.03125, 5.90625, 5.96875, 5.90625, 5.78125, 5.65625, 5.71875, 5.625, 5.5625, 5.59375, 5.5, 5.5625, 5.46875, 5.34375, 5.40625, 5.34375, 5.3125, 5.28125, 5.375, 5.28125, 5.25, 5.25, 5.28125, 5.125, 5.15625, 5.09375, 5.1875, 5.09375, 5.15625, 5.09375, 5.03125, 5.0625, 5.03125, 5.0, 5.0625, 5.03125, 5.03125, 5.0, 5.03125, 5.03125, 5.0, 5.0, 5.0, 4.96875, 4.96875, 4.90625, 4.875, 4.96875, 4.96875, 4.875, 4.96875, 4.9375, 4.96875, 4.96875, 4.875, 4.875, 4.875, 4.90625, 4.875, 4.9375, 4.78125, 4.84375, 4.875, 4.90625, 4.84375, 4.875, 4.8125, 4.875, 4.75, 4.75, 4.84375, 4.875, 4.84375, 4.8125, 4.84375, 4.78125, 4.71875, 4.71875, 4.78125, 4.75, 4.8125, 4.71875, 4.75, 4.75, 4.71875, 4.6875, 4.65625, 4.71875, 4.6875, 4.65625, 4.5625, 4.59375, 4.625, 4.59375, 4.65625, 4.65625, 4.59375, 4.53125, 4.625, 4.5625, 4.59375, 4.625, 4.625, 4.5625, 4.53125, 4.59375, 4.53125, 4.5625, 4.53125, 4.5625, 4.5625, 4.5625, 4.5625, 4.625, 4.46875, 4.53125, 4.59375, 4.4375, 4.625, 4.53125, 4.59375, 4.53125, 4.4375, 4.53125, 4.46875, 4.53125, 4.40625, 4.46875, 4.5, 4.46875, 4.4375, 4.5, 4.4375, 4.46875, 4.53125, 4.4375, 4.46875, 4.46875, 4.4375, 4.4375, 4.375, 4.4375, 4.4375, 4.375, 4.4375, 4.40625, 4.375, 4.40625, 4.40625, 4.4375, 4.375, 4.3125, 4.375, 4.40625, 4.40625, 4.40625, 4.40625, 4.25, 4.34375, 4.375, 4.46875, 4.34375, 4.34375, 4.3125, 4.375, 4.3125, 4.3125, 4.34375, 4.3125, 4.34375, 4.375, 4.34375, 4.375, 4.375, 4.28125, 4.34375, 4.25, 4.34375, 4.3125, 4.34375, 4.28125, 4.3125, 4.1875, 4.28125, 4.25, 4.21875, 4.3125, 4.25, 4.3125, 4.25, 4.21875, 4.21875, 4.15625, 4.1875, 4.21875, 4.25, 4.28125, 4.25, 4.1875, 4.21875, 4.1875, 4.25, 4.21875, 4.21875, 4.1875, 4.21875, 4.1875, 4.15625, 4.21875, 4.1875, 4.15625, 4.21875, 4.1875, 4.21875, 4.1875, 4.25, 4.21875, 4.21875, 4.15625, 4.03125, 4.125, 4.21875, 4.09375, 4.15625, 4.1875, 4.15625, 4.21875, 4.125, 4.15625, 4.15625, 4.09375, 4.15625, 4.0625, 4.21875, 4.15625, 4.125, 4.125, 4.15625, 4.15625, 4.15625, 4.125, 4.09375, 4.15625, 4.0625, 4.09375, 4.1875]","[56320.0, 1096.0, 756.0, 664.0, 568.0, 502.0, 502.0, 416.0, 368.0, 392.0, 368.0, 324.0, 286.0, 304.0, 278.0, 260.0, 270.0, 245.0, 260.0, 237.0, 209.0, 223.0, 209.0, 203.0, 197.0, 216.0, 197.0, 191.0, 191.0, 197.0, 168.0, 174.0, 163.0, 179.0, 163.0, 174.0, 163.0, 153.0, 158.0, 153.0, 149.0, 158.0, 153.0, 153.0, 149.0, 153.0, 153.0, 149.0, 149.0, 149.0, 144.0, 144.0, 135.0, 131.0, 144.0, 144.0, 131.0, 144.0, 140.0, 144.0, 144.0, 131.0, 131.0, 131.0, 135.0, 131.0, 140.0, 119.5, 127.0, 131.0, 135.0, 127.0, 131.0, 123.0, 131.0, 115.5, 115.5, 127.0, 131.0, 127.0, 123.0, 127.0, 119.5, 112.0, 112.0, 119.5, 115.5, 123.0, 112.0, 115.5, 115.5, 112.0, 108.5, 105.5, 112.0, 108.5, 105.5, 96.0, 99.0, 102.0, 99.0, 105.5, 105.5, 99.0, 93.0, 102.0, 96.0, 99.0, 102.0, 102.0, 96.0, 93.0, 99.0, 93.0, 96.0, 93.0, 96.0, 96.0, 96.0, 96.0, 102.0, 87.5, 93.0, 99.0, 84.5, 102.0, 93.0, 99.0, 93.0, 84.5, 93.0, 87.5, 93.0, 82.0, 87.5, 90.0, 87.5, 84.5, 90.0, 84.5, 87.5, 93.0, 84.5, 87.5, 87.5, 84.5, 84.5, 79.5, 84.5, 84.5, 79.5, 84.5, 82.0, 79.5, 82.0, 82.0, 84.5, 79.5, 74.5, 79.5, 82.0, 82.0, 82.0, 82.0, 70.0, 77.0, 79.5, 87.5, 77.0, 77.0, 74.5, 79.5, 74.5, 74.5, 77.0, 74.5, 77.0, 79.5, 77.0, 79.5, 79.5, 72.5, 77.0, 70.0, 77.0, 74.5, 77.0, 72.5, 74.5, 66.0, 72.5, 70.0, 68.0, 74.5, 70.0, 74.5, 70.0, 68.0, 68.0, 64.0, 66.0, 68.0, 70.0, 72.5, 70.0, 66.0, 68.0, 66.0, 70.0, 68.0, 68.0, 66.0, 68.0, 66.0, 64.0, 68.0, 66.0, 64.0, 68.0, 66.0, 68.0, 66.0, 70.0, 68.0, 68.0, 64.0, 56.25, 62.0, 68.0, 60.0, 64.0, 66.0, 64.0, 68.0, 62.0, 64.0, 64.0, 60.0, 64.0, 58.25, 68.0, 64.0, 62.0, 62.0, 64.0, 64.0, 64.0, 62.0, 60.0, 64.0, 58.25, 60.0, 66.0]","[10.9375, 7.25, 6.9375, 6.90625, 6.78125, 6.6875, 6.75, 6.53125, 6.4375, 6.53125, 6.46875, 6.34375, 6.25, 6.3125, 6.21875, 6.15625, 6.125, 6.0625, 6.125, 6.03125, 5.9375, 5.96875, 5.9375, 5.90625, 5.90625, 5.96875, 5.875, 5.90625, 5.875, 5.9375, 5.8125, 5.84375, 5.8125, 5.90625, 5.8125, 5.90625, 5.84375, 5.84375, 5.875, 5.8125, 5.78125, 5.875, 5.75, 5.84375, 5.78125, 5.875, 5.875, 5.8125, 5.84375, 5.875, 5.8125, 5.84375, 5.75, 5.71875, 5.84375, 5.78125, 5.75, 5.875, 5.78125, 5.90625, 5.8125, 5.75, 5.75, 5.84375, 5.78125, 5.8125, 5.8125, 5.75, 5.84375, 5.8125, 5.8125, 5.75, 5.8125, 5.75, 5.71875, 5.65625, 5.71875, 5.875, 5.78125, 5.625, 5.625, 5.625, 5.625, 5.625, 5.625, 5.6875, 5.625, 5.71875, 5.5625, 5.5, 5.5, 5.46875, 5.46875, 5.46875, 5.53125, 5.53125, 5.46875, 5.4375, 5.46875, 5.5, 5.4375, 5.5, 5.5, 5.4375, 5.46875, 5.5, 5.46875, 5.46875, 5.5625, 5.53125, 5.34375, 5.3125, 5.375, 5.34375, 5.375, 5.3125, 5.34375, 5.40625, 5.40625, 5.40625, 5.4375, 5.34375, 5.4375, 5.4375, 5.25, 5.4375, 5.34375, 5.40625, 5.40625, 5.25, 5.34375, 5.25, 5.28125, 5.21875, 5.28125, 5.3125, 5.28125, 5.25, 5.28125, 5.25, 5.3125, 5.3125, 5.25, 5.28125, 5.28125, 5.28125, 5.25, 5.1875, 5.21875, 5.25, 5.15625, 5.28125, 5.21875, 5.1875, 5.25, 5.25, 5.25, 5.1875, 5.15625, 5.21875, 5.21875, 5.21875, 5.21875, 5.21875, 5.09375, 5.15625, 5.1875, 5.28125, 5.15625, 5.1875, 5.125, 5.21875, 5.15625, 5.125, 5.1875, 5.125, 5.21875, 5.1875, 5.1875, 5.15625, 5.1875, 5.09375, 5.15625, 5.09375, 5.15625, 5.15625, 5.15625, 5.125, 5.15625, 5.0, 5.125, 5.09375, 5.0625, 5.15625, 5.09375, 5.15625, 5.09375, 5.0625, 5.09375, 5.0625, 5.03125, 5.09375, 5.09375, 5.125, 5.09375, 5.0625, 5.0625, 5.0625, 5.09375, 5.0625, 5.0625, 5.03125, 5.0625, 5.03125, 5.03125, 5.0625, 5.0625, 5.03125, 5.0625, 5.0625, 5.0625, 5.03125, 5.125, 5.03125, 5.0625, 5.03125, 4.90625, 4.96875, 5.0625, 4.9375, 5.0, 5.0625, 5.0, 5.09375, 5.0, 5.03125, 5.03125, 4.96875, 5.0, 4.9375, 5.09375, 5.03125, 5.0, 5.03125, 5.03125, 5.03125, 5.0, 5.0, 4.96875, 5.0, 4.9375, 4.96875, 5.03125]","[56320.0, 1408.0, 1032.0, 1000.0, 884.0, 804.0, 856.0, 688.0, 624.0, 688.0, 644.0, 568.0, 520.0, 552.0, 502.0, 472.0, 458.0, 430.0, 458.0, 416.0, 380.0, 392.0, 380.0, 368.0, 368.0, 392.0, 356.0, 368.0, 356.0, 380.0, 334.0, 346.0, 334.0, 368.0, 334.0, 368.0, 346.0, 346.0, 356.0, 334.0, 324.0, 356.0, 314.0, 346.0, 324.0, 356.0, 356.0, 334.0, 346.0, 356.0, 334.0, 346.0, 314.0, 304.0, 346.0, 324.0, 314.0, 356.0, 324.0, 368.0, 334.0, 314.0, 314.0, 346.0, 324.0, 334.0, 334.0, 314.0, 346.0, 334.0, 334.0, 314.0, 334.0, 314.0, 304.0, 286.0, 304.0, 356.0, 324.0, 278.0, 278.0, 278.0, 278.0, 278.0, 278.0, 296.0, 278.0, 304.0, 260.0, 245.0, 245.0, 237.0, 237.0, 237.0, 253.0, 253.0, 237.0, 230.0, 237.0, 245.0, 230.0, 245.0, 245.0, 230.0, 237.0, 245.0, 237.0, 237.0, 260.0, 253.0, 209.0, 203.0, 216.0, 209.0, 216.0, 203.0, 209.0, 223.0, 223.0, 223.0, 230.0, 209.0, 230.0, 230.0, 191.0, 230.0, 209.0, 223.0, 223.0, 191.0, 209.0, 191.0, 197.0, 185.0, 197.0, 203.0, 197.0, 191.0, 197.0, 191.0, 203.0, 203.0, 191.0, 197.0, 197.0, 197.0, 191.0, 179.0, 185.0, 191.0, 174.0, 197.0, 185.0, 179.0, 191.0, 191.0, 191.0, 179.0, 174.0, 185.0, 185.0, 185.0, 185.0, 185.0, 163.0, 174.0, 179.0, 197.0, 174.0, 179.0, 168.0, 185.0, 174.0, 168.0, 179.0, 168.0, 185.0, 179.0, 179.0, 174.0, 179.0, 163.0, 174.0, 163.0, 174.0, 174.0, 174.0, 168.0, 174.0, 149.0, 168.0, 163.0, 158.0, 174.0, 163.0, 174.0, 163.0, 158.0, 163.0, 158.0, 153.0, 163.0, 163.0, 168.0, 163.0, 158.0, 158.0, 158.0, 163.0, 158.0, 158.0, 153.0, 158.0, 153.0, 153.0, 158.0, 158.0, 153.0, 158.0, 158.0, 158.0, 153.0, 168.0, 153.0, 158.0, 153.0, 135.0, 144.0, 158.0, 140.0, 149.0, 158.0, 149.0, 163.0, 149.0, 153.0, 153.0, 144.0, 149.0, 140.0, 163.0, 153.0, 149.0, 153.0, 153.0, 153.0, 149.0, 149.0, 144.0, 149.0, 140.0, 144.0, 153.0]","[1.5167832316365093e-05, 0.08043375611305237, 0.08528200536966324, 0.0949864536523819, 0.09628470987081528, 0.09690052270889282, 0.10019446164369583, 0.11053843051195145, 0.10551697015762329, 0.10969258844852448, 0.10672309249639511, 0.1139744371175766, 0.12122689932584763, 0.11271478980779648, 0.12149845063686371, 0.11558543890714645, 0.12044724076986313, 0.1272600144147873, 0.11922218650579453, 0.12879133224487305, 0.1297282576560974, 0.12722258269786835, 0.12332570552825928, 0.14401838183403015, 0.13454656302928925, 0.12987171113491058, 0.13566133379936218, 0.13713806867599487, 0.13528138399124146, 0.13794681429862976, 0.12603673338890076, 0.1399073451757431, 0.13450372219085693, 0.12545715272426605, 0.14277921617031097, 0.13763929903507233, 0.13880357146263123, 0.14560852944850922, 0.1382608264684677, 0.15786828100681305, 0.13083375990390778, 0.1322774589061737, 0.13603092730045319, 0.13925066590309143, 0.14491958916187286, 0.14148293435573578, 0.150457963347435, 0.1325577050447464, 0.1333312839269638, 0.13164137303829193, 0.1396973729133606, 0.14022229611873627, 0.14592614769935608, 0.14180269837379456, 0.1294863373041153, 0.14185841381549835, 0.13820385932922363, 0.13309016823768616, 0.140952929854393, 0.12590108811855316, 0.133405402302742, 0.14945048093795776, 0.14771495759487152, 0.13705545663833618, 0.13553503155708313, 0.137245312333107, 0.14479494094848633, 0.143878772854805, 0.15734760463237762, 0.14819248020648956, 0.1382092833518982, 0.15173305571079254, 0.1430051028728485, 0.13964053988456726, 0.13145582377910614, 0.15185551345348358, 0.14205746352672577, 0.13863421976566315, 0.14822041988372803, 0.14892448484897614, 0.1306706815958023, 0.1431608349084854, 0.13750341534614563, 0.1455095112323761, 0.1613026261329651, 0.1563955843448639, 0.14396579563617706, 0.14519359171390533, 0.1455264836549759, 0.1539747714996338, 0.15666282176971436, 0.1414514183998108, 0.17420357465744019, 0.1482662856578827, 0.15427961945533752, 0.14315718412399292, 0.16107352077960968, 0.15875068306922913, 0.1661890596151352, 0.16094185411930084, 0.15260276198387146, 0.15380540490150452, 0.16907432675361633, 0.1604594588279724, 0.14115038514137268, 0.16028814017772675, 0.15312647819519043, 0.15065909922122955, 0.15375691652297974, 0.14612378180027008, 0.14507360756397247, 0.16442224383354187, 0.17085526883602142, 0.1709393858909607, 0.1575257033109665, 0.16707302629947662, 0.16630436480045319, 0.1486743986606598, 0.16254734992980957, 0.15379934012889862, 0.16371674835681915, 0.17761282622814178, 0.16295979917049408, 0.1562628597021103, 0.16094328463077545, 0.149357870221138, 0.16571488976478577, 0.16130155324935913, 0.16556039452552795, 0.1529003083705902, 0.14725877344608307, 0.17393624782562256, 0.1662648469209671, 0.16777057945728302, 0.17021502554416656, 0.16659869253635406, 0.17046649754047394, 0.18041753768920898, 0.16237148642539978, 0.171875, 0.1564359813928604, 0.1591297686100006, 0.15949785709381104, 0.17059406638145447, 0.16552479565143585, 0.1642514318227768, 0.17046679556369781, 0.17251569032669067, 0.17068952322006226, 0.15998168289661407, 0.16214574873447418, 0.17196740210056305, 0.17225584387779236, 0.18161356449127197, 0.1687280386686325, 0.18246741592884064, 0.17294569313526154, 0.1514672338962555, 0.17257924377918243, 0.17383302748203278, 0.159454807639122, 0.17851728200912476, 0.17843417823314667, 0.16923893988132477, 0.17148926854133606, 0.16294272243976593, 0.18012459576129913, 0.16078390181064606, 0.18233658373355865, 0.1768139749765396, 0.18676669895648956, 0.17050041258335114, 0.18406826257705688, 0.1723160445690155, 0.17541679739952087, 0.18299400806427002, 0.18114402890205383, 0.16266565024852753, 0.1756855696439743, 0.16895750164985657, 0.17355762422084808, 0.17692190408706665, 0.175167977809906, 0.17645981907844543, 0.18391959369182587, 0.1690811663866043, 0.173055037856102, 0.17843985557556152, 0.17035432159900665, 0.18798291683197021, 0.16873177886009216, 0.1846676617860794, 0.17643284797668457, 0.18593476712703705, 0.18275365233421326, 0.18137015402317047, 0.17797714471817017, 0.17617596685886383, 0.19243870675563812, 0.1854768544435501, 0.19647741317749023, 0.17519858479499817, 0.16639523208141327, 0.17644821107387543, 0.1700650304555893, 0.1733585000038147, 0.17279891669750214, 0.17585697770118713, 0.18978147208690643, 0.17435866594314575, 0.17544902861118317, 0.16541284322738647, 0.1943490356206894, 0.17762427031993866, 0.16543108224868774, 0.1898387223482132, 0.17849576473236084, 0.1998567283153534, 0.1849062293767929, 0.16575410962104797, 0.17352056503295898, 0.19884586334228516, 0.18444427847862244, 0.1897820085287094, 0.1863829344511032, 0.17165355384349823, 0.18381227552890778, 0.18695804476737976, 0.19111096858978271, 0.19258195161819458, 0.18911783397197723, 0.18817776441574097, 0.19198168814182281, 0.17613092064857483, 0.1924915611743927, 0.16378353536128998, 0.18821918964385986, 0.19477543234825134, 0.19206401705741882, 0.18081653118133545, 0.1863221824169159, 0.18609468638896942, 0.18132580816745758, 0.19552765786647797, 0.18145325779914856, 0.18199123442173004, 0.18414701521396637, 0.18675677478313446, 0.18260246515274048, 0.1810585856437683, 0.1921059787273407, 0.17678730189800262, 0.1838400810956955]","[1.0706752618716564e-05, 0.08177945017814636, 0.0860895961523056, 0.09825914353132248, 0.0982360765337944, 0.10006844252347946, 0.10272646695375443, 0.11475673317909241, 0.11007369309663773, 0.11430282890796661, 0.10993583500385284, 0.11999315023422241, 0.12610529363155365, 0.11585796624422073, 0.12548306584358215, 0.11821188777685165, 0.12500667572021484, 0.13128168880939484, 0.12144982069730759, 0.1335650086402893, 0.13496097922325134, 0.13097137212753296, 0.12896358966827393, 0.1482912003993988, 0.1410519778728485, 0.13353316485881805, 0.14117823541164398, 0.14188343286514282, 0.13792550563812256, 0.1439317762851715, 0.13186191022396088, 0.14704717695713043, 0.14050258696079254, 0.1325460970401764, 0.14860519766807556, 0.14635112881660461, 0.1470412015914917, 0.1550966203212738, 0.14661714434623718, 0.16649897396564484, 0.1389123648405075, 0.14350633323192596, 0.14207948744297028, 0.14552904665470123, 0.15315189957618713, 0.15183845162391663, 0.16322055459022522, 0.13968604803085327, 0.1425437480211258, 0.1443178802728653, 0.15004974603652954, 0.1503034234046936, 0.15518145263195038, 0.15284517407417297, 0.13899651169776917, 0.150920569896698, 0.14679645001888275, 0.1464662104845047, 0.15095287561416626, 0.13678120076656342, 0.14224889874458313, 0.16024309396743774, 0.15631888806819916, 0.1495727002620697, 0.14583243429660797, 0.145286425948143, 0.15438130497932434, 0.15522237122058868, 0.1693863421678543, 0.1606834977865219, 0.14834541082382202, 0.16473078727722168, 0.1540248841047287, 0.15013907849788666, 0.14063268899917603, 0.16473104059696198, 0.15402235090732574, 0.1525590568780899, 0.16149653494358063, 0.1560891568660736, 0.1403007209300995, 0.15305903553962708, 0.14734667539596558, 0.15772280097007751, 0.17409582436084747, 0.1668681651353836, 0.15321028232574463, 0.15706868469715118, 0.15394319593906403, 0.1636379212141037, 0.16415436565876007, 0.14892569184303284, 0.18340443074703217, 0.1596723198890686, 0.1631782054901123, 0.15315701067447662, 0.16986262798309326, 0.167900949716568, 0.17701122164726257, 0.17256282269954681, 0.16095201671123505, 0.16895534098148346, 0.18188533186912537, 0.16903336346149445, 0.15482304990291595, 0.17327909171581268, 0.16561245918273926, 0.1616557091474533, 0.16632065176963806, 0.15882492065429688, 0.1510452777147293, 0.1742410510778427, 0.18391284346580505, 0.18140845000743866, 0.1691920906305313, 0.17650456726551056, 0.17642652988433838, 0.16209140419960022, 0.1726701706647873, 0.16631737351417542, 0.17549750208854675, 0.19254904985427856, 0.17464394867420197, 0.16617602109909058, 0.16996364295482635, 0.15740998089313507, 0.17446206510066986, 0.17277778685092926, 0.1778331696987152, 0.16021183133125305, 0.15703362226486206, 0.18184347450733185, 0.17402011156082153, 0.17860467731952667, 0.17930223047733307, 0.17773045599460602, 0.17992746829986572, 0.19227969646453857, 0.17131942510604858, 0.17865248024463654, 0.16890235245227814, 0.17084264755249023, 0.16932366788387299, 0.17933712899684906, 0.17474138736724854, 0.17419485747814178, 0.18142539262771606, 0.18220321834087372, 0.17791548371315002, 0.16787445545196533, 0.1702655553817749, 0.1805824637413025, 0.18166646361351013, 0.19071823358535767, 0.17924366891384125, 0.19591356813907623, 0.18301722407341003, 0.1606173813343048, 0.1816578358411789, 0.18282583355903625, 0.1687300056219101, 0.18843865394592285, 0.18880783021450043, 0.1769697517156601, 0.18383722007274628, 0.172096848487854, 0.1916249692440033, 0.1703748106956482, 0.19087958335876465, 0.18791042268276215, 0.19614285230636597, 0.1829742193222046, 0.195559561252594, 0.18033172190189362, 0.18690457940101624, 0.1922130435705185, 0.1960570365190506, 0.17073170840740204, 0.18598432838916779, 0.17701445519924164, 0.18495415151119232, 0.184771329164505, 0.18487843871116638, 0.18576644361019135, 0.1930776834487915, 0.1768856793642044, 0.18400375545024872, 0.19000373780727386, 0.17737792432308197, 0.19591698050498962, 0.18092091381549835, 0.1965758055448532, 0.18508724868297577, 0.19611327350139618, 0.1939956694841385, 0.19494998455047607, 0.18935170769691467, 0.1866213083267212, 0.20462080836296082, 0.20015397667884827, 0.20953430235385895, 0.18742315471172333, 0.1757483035326004, 0.18829132616519928, 0.17741039395332336, 0.18245194852352142, 0.18087497353553772, 0.18850001692771912, 0.20187944173812866, 0.1839902400970459, 0.1834859400987625, 0.17621998488903046, 0.208350270986557, 0.18797403573989868, 0.17809097468852997, 0.1992809921503067, 0.18904435634613037, 0.21419326961040497, 0.19340237975120544, 0.17504091560840607, 0.18176661431789398, 0.2115621268749237, 0.1946277916431427, 0.2008643001317978, 0.1976061314344406, 0.18092527985572815, 0.19412443041801453, 0.19593879580497742, 0.20296981930732727, 0.20208895206451416, 0.20133014023303986, 0.1997411996126175, 0.2050895094871521, 0.18785831332206726, 0.2040410190820694, 0.17259307205677032, 0.19830536842346191, 0.20728708803653717, 0.20015618205070496, 0.19283893704414368, 0.19692155718803406, 0.19811320304870605, 0.1935683935880661, 0.20844528079032898, 0.19222256541252136, 0.1912916898727417, 0.1945023536682129, 0.19941973686218262, 0.19167210161685944, 0.18876765668392181, 0.20271934568881989, 0.18406304717063904, 0.19451430439949036]","[1.2283804608159699e-05, 0.09903202950954437, 0.10424036532640457, 0.12133942544460297, 0.11845272779464722, 0.12332940101623535, 0.12271520495414734, 0.13611683249473572, 0.13565005362033844, 0.14035475254058838, 0.13167010247707367, 0.1488305777311325, 0.1514347493648529, 0.14606672525405884, 0.15235602855682373, 0.14731967449188232, 0.15190152823925018, 0.15906298160552979, 0.1505134552717209, 0.16529087722301483, 0.16252702474594116, 0.15927180647850037, 0.16144604980945587, 0.17832398414611816, 0.17427033185958862, 0.16619987785816193, 0.17353330552577972, 0.17574439942836761, 0.17219437658786774, 0.17433175444602966, 0.16699832677841187, 0.1815914809703827, 0.17458970844745636, 0.16491007804870605, 0.181640625, 0.17628487944602966, 0.18208283185958862, 0.18933027982711792, 0.18477298319339752, 0.20424282550811768, 0.1732999086380005, 0.17492137849330902, 0.1796015053987503, 0.18447817862033844, 0.18420793116092682, 0.18781937658786774, 0.19715505838394165, 0.17485995590686798, 0.18279530107975006, 0.177120178937912, 0.18452730774879456, 0.18591538071632385, 0.19215555489063263, 0.1906200796365738, 0.1734841763973236, 0.18296727538108826, 0.1819845587015152, 0.18430620431900024, 0.18689808249473572, 0.17220665514469147, 0.18017885088920593, 0.19926787912845612, 0.1953125, 0.18983390927314758, 0.18202140927314758, 0.18431848287582397, 0.1908903270959854, 0.19464917480945587, 0.2054712027311325, 0.19220468401908875, 0.18530119955539703, 0.20296530425548553, 0.19218012690544128, 0.18449045717716217, 0.18106327950954437, 0.20796480774879456, 0.1910623013973236, 0.1886669546365738, 0.20070508122444153, 0.19473515450954437, 0.177427276968956, 0.1895759552717209, 0.18579255044460297, 0.19730247557163239, 0.21555620431900024, 0.20491842925548553, 0.1946123093366623, 0.19953812658786774, 0.1941823810338974, 0.20413225889205933, 0.2026950567960739, 0.1888020783662796, 0.22351610660552979, 0.2022528499364853, 0.19951355457305908, 0.19096402823925018, 0.21001620590686798, 0.2062082290649414, 0.21969585120677948, 0.214229553937912, 0.20585200190544128, 0.20868955552577972, 0.22081367671489716, 0.2117605060338974, 0.2002628594636917, 0.2127186506986618, 0.2095494270324707, 0.203296959400177, 0.2101513296365738, 0.20317412912845612, 0.19261005520820618, 0.2165389060974121, 0.22718895971775055, 0.22150155901908875, 0.21392245590686798, 0.21927820146083832, 0.21953615546226501, 0.20779283344745636, 0.2182217836380005, 0.20821048319339752, 0.21577730774879456, 0.2373231053352356, 0.2184920310974121, 0.2118465006351471, 0.21147798001766205, 0.19597582519054413, 0.21904480457305908, 0.21259580552577972, 0.22270537912845612, 0.20511497557163239, 0.19967325031757355, 0.22652563452720642, 0.22245970368385315, 0.22179637849330902, 0.22514985501766205, 0.2210962027311325, 0.22352838516235352, 0.2335519790649414, 0.20829647779464722, 0.222828209400177, 0.21537195146083832, 0.21386103332042694, 0.21742333471775055, 0.22193150222301483, 0.21346795558929443, 0.21797610819339752, 0.23292550444602966, 0.22811025381088257, 0.2202731817960739, 0.2135908007621765, 0.21846745908260345, 0.22175952792167664, 0.2249164581298828, 0.23552967607975006, 0.22327043116092682, 0.24118022620677948, 0.22643965482711792, 0.21034787595272064, 0.2271644026041031, 0.22814710438251495, 0.21483145654201508, 0.23197965323925018, 0.23335543274879456, 0.22657477855682373, 0.23011250793933868, 0.21473318338394165, 0.23791272938251495, 0.21569132804870605, 0.23465752601623535, 0.2329377830028534, 0.24546726047992706, 0.2299036830663681, 0.24421432614326477, 0.2227790802717209, 0.23071442544460297, 0.24529530107975006, 0.24033263325691223, 0.21360307931900024, 0.23299920558929443, 0.22427770495414734, 0.22709070146083832, 0.235713928937912, 0.2337239533662796, 0.24234718084335327, 0.2345961034297943, 0.22615712881088257, 0.2268204540014267, 0.2393622100353241, 0.22657477855682373, 0.24034492671489716, 0.22180865705013275, 0.23912882804870605, 0.2349400520324707, 0.2430965006351471, 0.23721255362033844, 0.23790045082569122, 0.23948505520820618, 0.23383450508117676, 0.25201454758644104, 0.24871018528938293, 0.2550363540649414, 0.23656150698661804, 0.2289455533027649, 0.2405414581298828, 0.22553065419197083, 0.22991597652435303, 0.2314637303352356, 0.2406643033027649, 0.2512038052082062, 0.23360110819339752, 0.23167255520820618, 0.2237003594636917, 0.25179341435432434, 0.23630355298519135, 0.22290192544460297, 0.2498648762702942, 0.24109423160552979, 0.2629348337650299, 0.23866203427314758, 0.2262185513973236, 0.23393277823925018, 0.2539553642272949, 0.244619682431221, 0.24689218401908875, 0.24941037595272064, 0.2298177033662796, 0.24772748351097107, 0.24511103332042694, 0.2467447817325592, 0.2520759403705597, 0.252567321062088, 0.2452215850353241, 0.25556454062461853, 0.23240958154201508, 0.25245675444602966, 0.22255797684192657, 0.24502505362033844, 0.2571246027946472, 0.25237077474594116, 0.24502505362033844, 0.24701502919197083, 0.24851365387439728, 0.2408854067325592, 0.25866007804870605, 0.24733440577983856, 0.24204008281230927, 0.24328075349330902, 0.2531569302082062, 0.24011152982711792, 0.23933765292167664, 0.2544344365596771, 0.23815840482711792, 0.2417084276676178]","[0.0, 0.02058499865233898, 0.03038856014609337, 0.026304025202989578, 0.03161000460386276, 0.031989745795726776, 0.03302747756242752, 0.03544745594263077, 0.0372282974421978, 0.039455655962228775, 0.03509099408984184, 0.03737333416938782, 0.0412210188806057, 0.03871450945734978, 0.04274744912981987, 0.037386901676654816, 0.04367654025554657, 0.04327575862407684, 0.04237466678023338, 0.04492780938744545, 0.048059407621622086, 0.04250658303499222, 0.04293622449040413, 0.04907703772187233, 0.045981597155332565, 0.04476064816117287, 0.04704674333333969, 0.04382164031267166, 0.045947831124067307, 0.04691024869680405, 0.042747415602207184, 0.04629327729344368, 0.04452481120824814, 0.04217148199677467, 0.04669361189007759, 0.04557514935731888, 0.046776026487350464, 0.04536396637558937, 0.044095806777477264, 0.048894792795181274, 0.04154707491397858, 0.04251581057906151, 0.04436039179563522, 0.043917011469602585, 0.045032650232315063, 0.0419028177857399, 0.04612546041607857, 0.04072198271751404, 0.0434611476957798, 0.04186340048909187, 0.042658451944589615, 0.0447872132062912, 0.04450748860836029, 0.04365088790655136, 0.04036388173699379, 0.04351283982396126, 0.04197890684008598, 0.040216658264398575, 0.043779343366622925, 0.03784202039241791, 0.041425637900829315, 0.04732788726687431, 0.04146052524447441, 0.040538351982831955, 0.04209195822477341, 0.03930799290537834, 0.04344579577445984, 0.043319351971149445, 0.04655297473073006, 0.04442668333649635, 0.04293603077530861, 0.045762792229652405, 0.04248175770044327, 0.04095962643623352, 0.04062900319695473, 0.047170910984277725, 0.04373525455594063, 0.0403432659804821, 0.04388093948364258, 0.049960460513830185, 0.041712481528520584, 0.04722638800740242, 0.044512681663036346, 0.04598965868353844, 0.05087939649820328, 0.0470857247710228, 0.044294487684965134, 0.04466128721833229, 0.0460255928337574, 0.05019413307309151, 0.05162685737013817, 0.04485723003745079, 0.0563659705221653, 0.046652719378471375, 0.04715045168995857, 0.045191410928964615, 0.04992079734802246, 0.04858450964093208, 0.05284363776445389, 0.05111183971166611, 0.04653128236532211, 0.04971751570701599, 0.054071083664894104, 0.048488814383745193, 0.04455016180872917, 0.048273127526044846, 0.04683511704206467, 0.04783391207456589, 0.04684232547879219, 0.04462774842977524, 0.04391546547412872, 0.05255758389830589, 0.05664564669132233, 0.05364261567592621, 0.0497242733836174, 0.05417054891586304, 0.05486307665705681, 0.048799797892570496, 0.050023213028907776, 0.05048806592822075, 0.05127011239528656, 0.05571212247014046, 0.050506461411714554, 0.04889189451932907, 0.05220911651849747, 0.045917537063360214, 0.05029745772480965, 0.05160941556096077, 0.054112907499074936, 0.04870318993926048, 0.04811984300613403, 0.05289749056100845, 0.05380913242697716, 0.05327754467725754, 0.051987335085868835, 0.0583331361413002, 0.052663423120975494, 0.05963023379445076, 0.051621969789266586, 0.05207552760839462, 0.0502532497048378, 0.051640868186950684, 0.04961607977747917, 0.05344470590353012, 0.050930894911289215, 0.05018756166100502, 0.05581231787800789, 0.055957697331905365, 0.05116235464811325, 0.0497918538749218, 0.050747036933898926, 0.05236884579062462, 0.05470161512494087, 0.05608918145298958, 0.05236972123384476, 0.056283820420503616, 0.05294433981180191, 0.04673399776220322, 0.05240948498249054, 0.05516741797327995, 0.050689101219177246, 0.05626526474952698, 0.05690281093120575, 0.05208529159426689, 0.05347217246890068, 0.049411382526159286, 0.058426856994628906, 0.051175590604543686, 0.05371543765068054, 0.05656759440898895, 0.05890593305230141, 0.05701487138867378, 0.05821308121085167, 0.0542718730866909, 0.05470065772533417, 0.05977677181363106, 0.05732100084424019, 0.04972723498940468, 0.05493508279323578, 0.050970759242773056, 0.05535776540637016, 0.05378727614879608, 0.054983220994472504, 0.05385223776102066, 0.05840369313955307, 0.053583934903144836, 0.05399704724550247, 0.05774884298443794, 0.05315099284052849, 0.058042220771312714, 0.051560159772634506, 0.05768103152513504, 0.055199626833200455, 0.060987867414951324, 0.05596935749053955, 0.06189252436161041, 0.05467832088470459, 0.0554674006998539, 0.061422038823366165, 0.05755012482404709, 0.05926532670855522, 0.055615223944187164, 0.05078772082924843, 0.05464429780840874, 0.05109061673283577, 0.051935017108917236, 0.05294449254870415, 0.05576416105031967, 0.060985565185546875, 0.05361942946910858, 0.0535627119243145, 0.05028945952653885, 0.06220807507634163, 0.054435908794403076, 0.050083745270967484, 0.05720215663313866, 0.05746698006987572, 0.060483966022729874, 0.057643063366413116, 0.05258626490831375, 0.05383463576436043, 0.06359207630157471, 0.057400546967983246, 0.058610301464796066, 0.05796322971582413, 0.05326966568827629, 0.05485410988330841, 0.05586134269833565, 0.0589170828461647, 0.05746800824999809, 0.0594305545091629, 0.05861552059650421, 0.059772275388240814, 0.055645257234573364, 0.058508045971393585, 0.05035383254289627, 0.05907528102397919, 0.05930196866393089, 0.05809801071882248, 0.05887012183666229, 0.05713082477450371, 0.05655011907219887, 0.05697806924581528, 0.05931514501571655, 0.05673874914646149, 0.05560220032930374, 0.0567084476351738, 0.05894751474261284, 0.054747749119997025, 0.055079586803913116, 0.056260280311107635, 0.05210119113326073, 0.05710410699248314]","[0.0, 0.037098269909620285, 0.049203190952539444, 0.05612211301922798, 0.05576872080564499, 0.05559249967336655, 0.05547066777944565, 0.06530395150184631, 0.060426779091358185, 0.0689312070608139, 0.06268279999494553, 0.06727707386016846, 0.07296761125326157, 0.07038802653551102, 0.07072509080171585, 0.0687512457370758, 0.07577268034219742, 0.07471112161874771, 0.07703007012605667, 0.07394834607839584, 0.07349342107772827, 0.07619551569223404, 0.07041411846876144, 0.08729948103427887, 0.07983025908470154, 0.0759468525648117, 0.08209700137376785, 0.08378073573112488, 0.08306177705526352, 0.08608349412679672, 0.07555555552244186, 0.08680670708417892, 0.08505427837371826, 0.07686686515808105, 0.08630494028329849, 0.08622404932975769, 0.08871182054281235, 0.08702879399061203, 0.08626050502061844, 0.09808201342821121, 0.079668328166008, 0.08074823766946793, 0.08464095741510391, 0.0875704362988472, 0.08543483167886734, 0.0861155241727829, 0.09211662411689758, 0.07950647175312042, 0.08285316824913025, 0.08173300325870514, 0.08610282093286514, 0.08965791016817093, 0.09390576183795929, 0.08889621496200562, 0.08021178096532822, 0.08503041416406631, 0.08343297243118286, 0.08237789571285248, 0.08791062980890274, 0.07720954716205597, 0.08263091742992401, 0.09425957500934601, 0.08811448514461517, 0.0900936871767044, 0.08313349634408951, 0.07999470829963684, 0.08912856131792068, 0.09040111303329468, 0.10139837116003036, 0.09423496574163437, 0.08806326985359192, 0.09397846460342407, 0.08996699750423431, 0.08755974471569061, 0.08164481818675995, 0.09505121409893036, 0.08606774359941483, 0.0865180492401123, 0.08749587833881378, 0.090186208486557, 0.07648687809705734, 0.08917702734470367, 0.08117740601301193, 0.09042412787675858, 0.10364518314599991, 0.09492537379264832, 0.09173762798309326, 0.09155162423849106, 0.08837240189313889, 0.09578975290060043, 0.09810716658830643, 0.08549719303846359, 0.10937187820672989, 0.08710106462240219, 0.09232302755117416, 0.08242376148700714, 0.09785407781600952, 0.09859621524810791, 0.10271202772855759, 0.09923664480447769, 0.09046357125043869, 0.09521276503801346, 0.10569804161787033, 0.0997018814086914, 0.08523480594158173, 0.0984538123011589, 0.0900125801563263, 0.0920991376042366, 0.09272751212120056, 0.08905109763145447, 0.08543483167886734, 0.09898629039525986, 0.10064224898815155, 0.0973176509141922, 0.09599841386079788, 0.09841500967741013, 0.10336139798164368, 0.09264086931943893, 0.10132042318582535, 0.09771032631397247, 0.09895521402359009, 0.10798153281211853, 0.09502352774143219, 0.09464014321565628, 0.09771032631397247, 0.0892975702881813, 0.09916320443153381, 0.09633300453424454, 0.10271883010864258, 0.09148202836513519, 0.08856211602687836, 0.10536778718233109, 0.09768179804086685, 0.10401327162981033, 0.09818591177463531, 0.10185123980045319, 0.10170503705739975, 0.10946588963270187, 0.09511499851942062, 0.1037810668349266, 0.09679550677537918, 0.09786276519298553, 0.09608400613069534, 0.10157909244298935, 0.09878510236740112, 0.10025912523269653, 0.10312499850988388, 0.10728529840707779, 0.09608258306980133, 0.09726906567811966, 0.09692215919494629, 0.10593528300523758, 0.10334306210279465, 0.10826928168535233, 0.10339363664388657, 0.11086032539606094, 0.10404355823993683, 0.08784811943769455, 0.10461004823446274, 0.10352832078933716, 0.10147809237241745, 0.11334662139415741, 0.10751260817050934, 0.10190154612064362, 0.09993364661931992, 0.09864103049039841, 0.11412030458450317, 0.09670563042163849, 0.11225364357233047, 0.10696715861558914, 0.11451645195484161, 0.1021096482872963, 0.110376738011837, 0.10264085233211517, 0.10501256585121155, 0.11061008274555206, 0.10576987266540527, 0.09956423938274384, 0.10588860511779785, 0.10043726861476898, 0.10263209789991379, 0.10764142125844955, 0.10697243362665176, 0.10818848758935928, 0.11152219772338867, 0.09936659038066864, 0.09968660771846771, 0.1124495342373848, 0.10091257840394974, 0.11433321982622147, 0.10267500579357147, 0.10836160182952881, 0.10301308333873749, 0.117961585521698, 0.10962992906570435, 0.10869420319795609, 0.10800238698720932, 0.10429650545120239, 0.11671316623687744, 0.11373619735240936, 0.11691920459270477, 0.10441793501377106, 0.10190324485301971, 0.11033159494400024, 0.10424428433179855, 0.09874816983938217, 0.10602059960365295, 0.10580092668533325, 0.11692694574594498, 0.10399312525987625, 0.10803453624248505, 0.09814166277647018, 0.12202420830726624, 0.10927437990903854, 0.0997338593006134, 0.11595836281776428, 0.10984195023775101, 0.12441080808639526, 0.11540500819683075, 0.10031202435493469, 0.10435128211975098, 0.12336931377649307, 0.11451902240514755, 0.1119670644402504, 0.10780470818281174, 0.10039787739515305, 0.11075484752655029, 0.11148086190223694, 0.11797640472650528, 0.11092714965343475, 0.11582069844007492, 0.11401582509279251, 0.11571834981441498, 0.10905103385448456, 0.11177327483892441, 0.10408921539783478, 0.10901009291410446, 0.11292896419763565, 0.11764705926179886, 0.10950494557619095, 0.11099302023649216, 0.11247675120830536, 0.10866528749465942, 0.11680666357278824, 0.10861023515462875, 0.11497750133275986, 0.11010457575321198, 0.11183775216341019, 0.10989303141832352, 0.11006372421979904, 0.11618997901678085, 0.10998803377151489, 0.10416529327630997]","[0.0, 0.005564563907682896, 0.011018573306500912, 0.001363502349704504, 0.001437205239199102, 0.001252948073670268, 0.0011055425275117159, 0.003021816024556756, 0.00243219337426126, 0.002727004699409008, 0.002174233552068472, 0.001879422226920724, 0.002174233552068472, 0.002247936325147748, 0.002727004699409008, 0.001658313674852252, 0.004090507049113512, 0.005343455355614424, 0.00493808975443244, 0.003058667527511716, 0.005454009398818016, 0.003242924576625228, 0.003021816024556756, 0.005011792294681072, 0.003832547226920724, 0.00294811325147748, 0.002542747650295496, 0.003242924576625228, 0.002505896147340536, 0.002653301926329732, 0.002358490601181984, 0.002284787828102708, 0.002542747650295496, 0.00243219337426126, 0.002137382049113512, 0.002063679276034236, 0.002321639098227024, 0.002100530778989196, 0.002247936325147748, 0.002063679276034236, 0.002063679276034236, 0.001879422226920724, 0.001621462288312614, 0.001916273613460362, 0.0022110850550234318, 0.001658313674852252, 0.00198997650295496, 0.001510908012278378, 0.0016951651778072119, 0.001842570723965764, 0.001510908012278378, 0.001621462288312614, 0.001805719337426126, 0.001768867950886488, 0.001768867950886488, 0.002505896147340536, 0.0014003538526594639, 0.001916273613460362, 0.0016951651778072119, 0.001510908012278378, 0.001547759398818016, 0.002137382049113512, 0.00198997650295496, 0.001363502349704504, 0.001953125, 0.001363502349704504, 0.001805719337426126, 0.0014003538526594639, 0.002247936325147748, 0.001805719337426126, 0.0016951651778072119, 0.001805719337426126, 0.001326650963164866, 0.001584610901772976, 0.000884433975443244, 0.001584610901772976, 0.001805719337426126, 0.001363502349704504, 0.00173201656434685, 0.002247936325147748, 0.002100530778989196, 0.002542747650295496, 0.001363502349704504, 0.001805719337426126, 0.002542747650295496, 0.001768867950886488, 0.001326650963164866, 0.001621462288312614, 0.00173201656434685, 0.002690153429284692, 0.0044221701100468636, 0.002727004699409008, 0.004053655546158552, 0.002100530778989196, 0.002174233552068472, 0.002137382049113512, 0.002284787828102708, 0.001916273613460362, 0.002616450423374772, 0.002174233552068472, 0.002137382049113512, 0.002653301926329732, 0.003316627349704504, 0.0016951651778072119, 0.001252948073670268, 0.002174233552068472, 0.00173201656434685, 0.002542747650295496, 0.001879422226920724, 0.001547759398818016, 0.002542747650295496, 0.0034640331286937, 0.00486438674852252, 0.003574587404727936, 0.002321639098227024, 0.003832547226920724, 0.00298496475443244, 0.0016951651778072119, 0.002026827773079276, 0.002247936325147748, 0.002284787828102708, 0.0028007077053189278, 0.002026827773079276, 0.002026827773079276, 0.00298496475443244, 0.003648290177807212, 0.003058667527511716, 0.002284787828102708, 0.00294811325147748, 0.002358490601181984, 0.004053655546158552, 0.004643278196454048, 0.003869398729875684, 0.005085495300590992, 0.004053655546158552, 0.003095518797636032, 0.00291126174852252, 0.003869398729875684, 0.002395342104136944, 0.00291126174852252, 0.002505896147340536, 0.002616450423374772, 0.002321639098227024, 0.003353478852659464, 0.00298496475443244, 0.00243219337426126, 0.002505896147340536, 0.005675117950886488, 0.007186025846749544, 0.006227889098227024, 0.005122346803545952, 0.006743809208273888, 0.0067806607112288475, 0.006559552159160376, 0.004532724153250456, 0.005343455355614424, 0.004643278196454048, 0.002616450423374772, 0.003537735901772976, 0.004311615601181984, 0.003132370300590992, 0.004274764098227024, 0.003242924576625228, 0.00397995300590992, 0.004127358552068472, 0.003869398729875684, 0.004569575656205416, 0.004053655546158552, 0.004753832705318928, 0.003132370300590992, 0.010023584589362144, 0.011129127815365791, 0.010723762214183807, 0.009102299809455872, 0.008254717104136944, 0.008438974618911743, 0.008512676693499088, 0.004643278196454048, 0.006006780546158552, 0.005232900846749544, 0.00681751174852252, 0.006006780546158552, 0.005454009398818016, 0.003648290177807212, 0.005675117950886488, 0.005306603852659464, 0.00490123825147748, 0.005085495300590992, 0.00394310150295496, 0.00482753524556756, 0.004495872650295496, 0.005564563907682896, 0.00401680450886488, 0.00493808975443244, 0.014777417294681072, 0.01886792480945587, 0.013192806392908096, 0.0138561325147748, 0.020563090220093727, 0.015145931392908096, 0.01938384398818016, 0.012971698306500912, 0.010023584589362144, 0.011976710520684719, 0.012087264098227024, 0.010281545110046864, 0.014077240601181984, 0.013266509398818016, 0.016841096803545952, 0.014040389098227024, 0.014556309208273888, 0.012934846803545952, 0.022700471803545952, 0.016104068607091904, 0.012934846803545952, 0.017246462404727936, 0.014666863717138767, 0.018904775381088257, 0.019641805440187454, 0.01182930450886488, 0.012271521613001823, 0.020931603386998177, 0.01378242950886488, 0.01606721803545952, 0.014261498115956783, 0.013229657895863056, 0.010539504699409008, 0.014593160711228848, 0.01606721803545952, 0.01164504699409008, 0.01182930450886488, 0.01186615601181984, 0.01931014098227024, 0.016030365601181984, 0.01824145019054413, 0.01175560150295496, 0.017762381583452225, 0.016804246231913567, 0.01614091917872429, 0.016546284779906273, 0.016877949237823486, 0.016104068607091904, 0.013155955821275711, 0.014556309208273888, 0.011018573306500912, 0.010686910711228848, 0.012013561092317104, 0.011571344919502735, 0.010650059208273888, 0.011460790410637856, 0.013377063907682896, 0.009102299809455872, 0.01164504699409008]","[10.5625, 10.5625, 10.5625, 10.5625, 10.5625, 6.09375, 6.09375, 6.09375, 6.09375, 6.09375, 5.71875, 5.71875, 5.71875, 5.71875, 5.71875, 5.34375, 5.34375, 5.34375, 5.34375, 5.34375, 5.15625, 5.15625, 5.15625, 5.15625, 5.15625, 5.0625, 5.0625, 5.0625, 5.0625, 5.0625, 4.96875, 4.96875, 4.96875, 4.96875, 4.96875, 4.875, 4.875, 4.875, 4.875, 4.875, 4.8125, 4.8125, 4.8125, 4.8125, 4.8125, 4.75, 4.75, 4.75, 4.75, 4.75, 4.71875, 4.71875, 4.71875, 4.71875, 4.71875, 4.65625, 4.65625, 4.65625, 4.65625, 4.65625, 4.625, 4.625, 4.625, 4.625, 4.625, 4.59375, 4.59375, 4.59375, 4.59375, 4.59375, 4.5625, 4.5625, 4.5625, 4.5625, 4.5625, 4.53125, 4.53125, 4.53125, 4.53125, 4.53125, 4.5, 4.5, 4.5, 4.5, 4.5, 4.4375, 4.4375, 4.4375, 4.4375, 4.4375, 4.4375, 4.4375, 4.4375, 4.4375, 4.4375, 4.375, 4.375, 4.375, 4.375, 4.375, 4.34375, 4.34375, 4.34375, 4.34375, 4.34375, 4.3125, 4.3125, 4.3125, 4.3125, 4.3125, 4.28125, 4.28125, 4.28125, 4.28125, 4.28125, 4.25, 4.25, 4.25, 4.25, 4.25, 4.21875, 4.21875, 4.21875, 4.21875, 4.21875, 4.1875, 4.1875, 4.1875, 4.1875, 4.1875, 4.1875, 4.1875, 4.1875, 4.1875, 4.1875, 4.15625, 4.15625, 4.15625, 4.15625, 4.15625, 4.125, 4.125, 4.125, 4.125, 4.125, 4.09375, 4.09375, 4.09375, 4.09375, 4.09375, 4.0625, 4.0625, 4.0625, 4.0625, 4.0625, 4.0625, 4.0625, 4.0625, 4.0625, 4.0625, 4.03125, 4.03125, 4.03125, 4.03125, 4.03125, 4.03125, 4.03125, 4.03125, 4.03125, 4.03125, 4.0, 4.0, 4.0, 4.0, 4.0, 3.96875, 3.96875, 3.96875, 3.96875, 3.96875, 3.953125, 3.953125, 3.953125, 3.953125, 3.953125, 3.921875, 3.921875, 3.921875, 3.921875, 3.921875, 3.90625, 3.90625, 3.90625, 3.90625, 3.90625, 3.875, 3.875, 3.875, 3.875, 3.875, 3.859375, 3.859375, 3.859375, 3.859375, 3.859375, 3.84375, 3.84375, 3.84375, 3.84375, 3.84375, 3.8125, 3.8125, 3.8125, 3.8125, 3.8125, 3.796875, 3.796875, 3.796875, 3.796875, 3.796875, 3.78125, 3.78125, 3.78125, 3.78125, 3.78125, 3.78125, 3.78125, 3.78125, 3.78125, 3.78125, 3.796875, 3.796875, 3.796875, 3.796875, 3.796875, 3.734375, 3.734375, 3.734375, 3.734375, 3.734375, 3.75, 3.75, 3.75, 3.75, 3.75, 3.71875, 3.71875, 3.71875, 3.71875, 3.71875, 3.71875, 3.71875, 3.71875]","[38657.38671875, 38657.38671875, 38657.38671875, 38657.38671875, 38657.38671875, 443.0780944824219, 443.0780944824219, 443.0780944824219, 443.0780944824219, 443.0780944824219, 304.5229187011719, 304.5229187011719, 304.5229187011719, 304.5229187011719, 304.5229187011719, 209.29537963867188, 209.29537963867188, 209.29537963867188, 209.29537963867188, 209.29537963867188, 173.51197814941406, 173.51197814941406, 173.51197814941406, 173.51197814941406, 173.51197814941406, 157.98446655273438, 157.98446655273438, 157.98446655273438, 157.98446655273438, 157.98446655273438, 143.8465118408203, 143.8465118408203, 143.8465118408203, 143.8465118408203, 143.8465118408203, 130.97373962402344, 130.97373962402344, 130.97373962402344, 130.97373962402344, 130.97373962402344, 123.0384521484375, 123.0384521484375, 123.0384521484375, 123.0384521484375, 123.0384521484375, 115.58393096923828, 115.58393096923828, 115.58393096923828, 115.58393096923828, 115.58393096923828, 112.02778625488281, 112.02778625488281, 112.02778625488281, 112.02778625488281, 112.02778625488281, 105.24037170410156, 105.24037170410156, 105.24037170410156, 105.24037170410156, 105.24037170410156, 102.0024642944336, 102.0024642944336, 102.0024642944336, 102.0024642944336, 102.0024642944336, 98.86418151855469, 98.86418151855469, 98.86418151855469, 98.86418151855469, 98.86418151855469, 95.82245635986328, 95.82245635986328, 95.82245635986328, 95.82245635986328, 95.82245635986328, 92.87431335449219, 92.87431335449219, 92.87431335449219, 92.87431335449219, 92.87431335449219, 90.0168685913086, 90.0168685913086, 90.0168685913086, 90.0168685913086, 90.0168685913086, 84.56302642822266, 84.56302642822266, 84.56302642822266, 84.56302642822266, 84.56302642822266, 84.56302642822266, 84.56302642822266, 84.56302642822266, 84.56302642822266, 84.56302642822266, 79.43961334228516, 79.43961334228516, 79.43961334228516, 79.43961334228516, 79.43961334228516, 76.99551391601562, 76.99551391601562, 76.99551391601562, 76.99551391601562, 76.99551391601562, 74.62661743164062, 74.62661743164062, 74.62661743164062, 74.62661743164062, 74.62661743164062, 72.33059692382812, 72.33059692382812, 72.33059692382812, 72.33059692382812, 72.33059692382812, 70.10521697998047, 70.10521697998047, 70.10521697998047, 70.10521697998047, 70.10521697998047, 67.94831085205078, 67.94831085205078, 67.94831085205078, 67.94831085205078, 67.94831085205078, 65.8577651977539, 65.8577651977539, 65.8577651977539, 65.8577651977539, 65.8577651977539, 65.8577651977539, 65.8577651977539, 65.8577651977539, 65.8577651977539, 65.8577651977539, 63.8315315246582, 63.8315315246582, 63.8315315246582, 63.8315315246582, 63.8315315246582, 61.867645263671875, 61.867645263671875, 61.867645263671875, 61.867645263671875, 61.867645263671875, 59.96417999267578, 59.96417999267578, 59.96417999267578, 59.96417999267578, 59.96417999267578, 58.1192741394043, 58.1192741394043, 58.1192741394043, 58.1192741394043, 58.1192741394043, 58.1192741394043, 58.1192741394043, 58.1192741394043, 58.1192741394043, 58.1192741394043, 56.33113479614258, 56.33113479614258, 56.33113479614258, 56.33113479614258, 56.33113479614258, 56.33113479614258, 56.33113479614258, 56.33113479614258, 56.33113479614258, 56.33113479614258, 54.5980110168457, 54.5980110168457, 54.5980110168457, 54.5980110168457, 54.5980110168457, 52.91820526123047, 52.91820526123047, 52.91820526123047, 52.91820526123047, 52.91820526123047, 52.09778594970703, 52.09778594970703, 52.09778594970703, 52.09778594970703, 52.09778594970703, 50.49490737915039, 50.49490737915039, 50.49490737915039, 50.49490737915039, 50.49490737915039, 49.71205520629883, 49.71205520629883, 49.71205520629883, 49.71205520629883, 49.71205520629883, 48.182579040527344, 48.182579040527344, 48.182579040527344, 48.182579040527344, 48.182579040527344, 47.435577392578125, 47.435577392578125, 47.435577392578125, 47.435577392578125, 47.435577392578125, 46.700157165527344, 46.700157165527344, 46.700157165527344, 46.700157165527344, 46.700157165527344, 45.263343811035156, 45.263343811035156, 45.263343811035156, 45.263343811035156, 45.263343811035156, 44.56160354614258, 44.56160354614258, 44.56160354614258, 44.56160354614258, 44.56160354614258, 43.8707389831543, 43.8707389831543, 43.8707389831543, 43.8707389831543, 43.8707389831543, 43.8707389831543, 43.8707389831543, 43.8707389831543, 43.8707389831543, 43.8707389831543, 44.56160354614258, 44.56160354614258, 44.56160354614258, 44.56160354614258, 44.56160354614258, 41.861751556396484, 41.861751556396484, 41.861751556396484, 41.861751556396484, 41.861751556396484, 42.52098083496094, 42.52098083496094, 42.52098083496094, 42.52098083496094, 42.52098083496094, 41.212745666503906, 41.212745666503906, 41.212745666503906, 41.212745666503906, 41.212745666503906, 41.212745666503906, 41.212745666503906, 41.212745666503906]","[0.030879970639944077, 0.030879970639944077, 0.030879970639944077, 0.030879970639944077, 0.030879970639944077, 0.17264211177825928, 0.17264211177825928, 0.17264211177825928, 0.17264211177825928, 0.17264211177825928, 0.1879996806383133, 0.1879996806383133, 0.1879996806383133, 0.1879996806383133, 0.1879996806383133, 0.20618699491024017, 0.20618699491024017, 0.20618699491024017, 0.20618699491024017, 0.20618699491024017, 0.21706640720367432, 0.21706640720367432, 0.21706640720367432, 0.21706640720367432, 0.21706640720367432, 0.22267095744609833, 0.22267095744609833, 0.22267095744609833, 0.22267095744609833, 0.22267095744609833, 0.23099535703659058, 0.23099535703659058, 0.23099535703659058, 0.23099535703659058, 0.23099535703659058, 0.23519878089427948, 0.23519878089427948, 0.23519878089427948, 0.23519878089427948, 0.23519878089427948, 0.23951208591461182, 0.23951208591461182, 0.23951208591461182, 0.23951208591461182, 0.23951208591461182, 0.24393527209758759, 0.24393527209758759, 0.24393527209758759, 0.24393527209758759, 0.24393527209758759, 0.2475617527961731, 0.2475617527961731, 0.2475617527961731, 0.2475617527961731, 0.2475617527961731, 0.25008928775787354, 0.25008928775787354, 0.25008928775787354, 0.25008928775787354, 0.25008928775787354, 0.2524794638156891, 0.2524794638156891, 0.2524794638156891, 0.2524794638156891, 0.2524794638156891, 0.25868842005729675, 0.25868842005729675, 0.25868842005729675, 0.25868842005729675, 0.25868842005729675, 0.26066651940345764, 0.26066651940345764, 0.26066651940345764, 0.26066651940345764, 0.26066651940345764, 0.25811150670051575, 0.25811150670051575, 0.25811150670051575, 0.25811150670051575, 0.25811150670051575, 0.2648424506187439, 0.2648424506187439, 0.2648424506187439, 0.2648424506187439, 0.2648424506187439, 0.2691832184791565, 0.2691832184791565, 0.2691832184791565, 0.2691832184791565, 0.2691832184791565, 0.2722327709197998, 0.2722327709197998, 0.2722327709197998, 0.2722327709197998, 0.2722327709197998, 0.2772878408432007, 0.2772878408432007, 0.2772878408432007, 0.2772878408432007, 0.2772878408432007, 0.2802274823188782, 0.2802274823188782, 0.2802274823188782, 0.2802274823188782, 0.2802274823188782, 0.28138136863708496, 0.28138136863708496, 0.28138136863708496, 0.28138136863708496, 0.28138136863708496, 0.2852001488208771, 0.2852001488208771, 0.2852001488208771, 0.2852001488208771, 0.2852001488208771, 0.28827714920043945, 0.28827714920043945, 0.28827714920043945, 0.28827714920043945, 0.28827714920043945, 0.2900903820991516, 0.2900903820991516, 0.2900903820991516, 0.2900903820991516, 0.2900903820991516, 0.291628897190094, 0.291628897190094, 0.291628897190094, 0.291628897190094, 0.291628897190094, 0.29198604822158813, 0.29198604822158813, 0.29198604822158813, 0.29198604822158813, 0.29198604822158813, 0.29368939995765686, 0.29368939995765686, 0.29368939995765686, 0.29368939995765686, 0.29368939995765686, 0.3000906705856323, 0.3000906705856323, 0.3000906705856323, 0.3000906705856323, 0.3000906705856323, 0.3002280294895172, 0.3002280294895172, 0.3002280294895172, 0.3002280294895172, 0.3002280294895172, 0.301381915807724, 0.301381915807724, 0.301381915807724, 0.301381915807724, 0.301381915807724, 0.3052831292152405, 0.3052831292152405, 0.3052831292152405, 0.3052831292152405, 0.3052831292152405, 0.30690404772758484, 0.30690404772758484, 0.30690404772758484, 0.30690404772758484, 0.30690404772758484, 0.3064095377922058, 0.3064095377922058, 0.3064095377922058, 0.3064095377922058, 0.3064095377922058, 0.31105250120162964, 0.31105250120162964, 0.31105250120162964, 0.31105250120162964, 0.31105250120162964, 0.31289321184158325, 0.31289321184158325, 0.31289321184158325, 0.31289321184158325, 0.31289321184158325, 0.3151460289955139, 0.3151460289955139, 0.3151460289955139, 0.3151460289955139, 0.3151460289955139, 0.3173164129257202, 0.3173164129257202, 0.3173164129257202, 0.3173164129257202, 0.3173164129257202, 0.3195692300796509, 0.3195692300796509, 0.3195692300796509, 0.3195692300796509, 0.3195692300796509, 0.32245391607284546, 0.32245391607284546, 0.32245391607284546, 0.32245391607284546, 0.32245391607284546, 0.3251737654209137, 0.3251737654209137, 0.3251737654209137, 0.3251737654209137, 0.3251737654209137, 0.326767235994339, 0.326767235994339, 0.326767235994339, 0.326767235994339, 0.326767235994339, 0.32929477095603943, 0.32929477095603943, 0.32929477095603943, 0.32929477095603943, 0.32929477095603943, 0.33253660798072815, 0.33253660798072815, 0.33253660798072815, 0.33253660798072815, 0.33253660798072815, 0.33182230591773987, 0.33182230591773987, 0.33182230591773987, 0.33182230591773987, 0.33182230591773987, 0.3310256004333496, 0.3310256004333496, 0.3310256004333496, 0.3310256004333496, 0.3310256004333496, 0.3303387463092804, 0.3303387463092804, 0.3303387463092804, 0.3303387463092804, 0.3303387463092804, 0.33712464570999146, 0.33712464570999146, 0.33712464570999146, 0.33712464570999146, 0.33712464570999146, 0.334102600812912, 0.334102600812912, 0.334102600812912, 0.334102600812912, 0.334102600812912, 0.33871811628341675, 0.33871811628341675, 0.33871811628341675, 0.33871811628341675, 0.33871811628341675, 0.33896535634994507, 0.33896535634994507, 0.33896535634994507]","[10.4375, 10.4375, 10.4375, 10.4375, 10.4375, 6.40625, 6.40625, 6.40625, 6.40625, 6.40625, 6.15625, 6.15625, 6.15625, 6.15625, 6.15625, 5.75, 5.75, 5.75, 5.75, 5.75, 5.5625, 5.5625, 5.5625, 5.5625, 5.5625, 5.46875, 5.46875, 5.46875, 5.46875, 5.46875, 5.375, 5.375, 5.375, 5.375, 5.375, 5.34375, 5.34375, 5.34375, 5.34375, 5.34375, 5.28125, 5.28125, 5.28125, 5.28125, 5.28125, 5.21875, 5.21875, 5.21875, 5.21875, 5.21875, 5.1875, 5.1875, 5.1875, 5.1875, 5.1875, 5.15625, 5.15625, 5.15625, 5.15625, 5.15625, 5.09375, 5.09375, 5.09375, 5.09375, 5.09375, 5.125, 5.125, 5.125, 5.125, 5.125, 5.0625, 5.0625, 5.0625, 5.0625, 5.0625, 5.03125, 5.03125, 5.03125, 5.03125, 5.03125, 4.96875, 4.96875, 4.96875, 4.96875, 4.96875, 4.96875, 4.96875, 4.96875, 4.96875, 4.96875, 4.90625, 4.90625, 4.90625, 4.90625, 4.90625, 4.875, 4.875, 4.875, 4.875, 4.875, 4.875, 4.875, 4.875, 4.875, 4.875, 4.84375, 4.84375, 4.84375, 4.84375, 4.84375, 4.78125, 4.78125, 4.78125, 4.78125, 4.78125, 4.75, 4.75, 4.75, 4.75, 4.75, 4.71875, 4.71875, 4.71875, 4.71875, 4.71875, 4.71875, 4.71875, 4.71875, 4.71875, 4.71875, 4.625, 4.625, 4.625, 4.625, 4.625, 4.65625, 4.65625, 4.65625, 4.65625, 4.65625, 4.65625, 4.65625, 4.65625, 4.65625, 4.65625, 4.625, 4.625, 4.625, 4.625, 4.625, 4.46875, 4.46875, 4.46875, 4.46875, 4.46875, 4.53125, 4.53125, 4.53125, 4.53125, 4.53125, 4.53125, 4.53125, 4.53125, 4.53125, 4.53125, 4.5, 4.5, 4.5, 4.5, 4.5, 4.375, 4.375, 4.375, 4.375, 4.375, 4.375, 4.375, 4.375, 4.375, 4.375, 4.40625, 4.40625, 4.40625, 4.40625, 4.40625, 4.375, 4.375, 4.375, 4.375, 4.375, 4.375, 4.375, 4.375, 4.375, 4.375, 4.1875, 4.1875, 4.1875, 4.1875, 4.1875, 4.15625, 4.15625, 4.15625, 4.15625, 4.15625, 4.1875, 4.1875, 4.1875, 4.1875, 4.1875, 4.125, 4.125, 4.125, 4.125, 4.125, 4.09375, 4.09375, 4.09375, 4.09375, 4.09375, 4.09375, 4.09375, 4.09375, 4.09375, 4.09375, 4.125, 4.125, 4.125, 4.125, 4.125, 4.15625, 4.15625, 4.15625, 4.15625, 4.15625, 4.0625, 4.0625, 4.0625, 4.0625, 4.0625, 4.0625, 4.0625, 4.0625, 4.0625, 4.0625, 4.0625, 4.0625, 4.0625, 4.0625, 4.0625, 4.0625, 4.0625, 4.0625]","[34115.02734375, 34115.02734375, 34115.02734375, 34115.02734375, 34115.02734375, 605.6158447265625, 605.6158447265625, 605.6158447265625, 605.6158447265625, 605.6158447265625, 471.6541748046875, 471.6541748046875, 471.6541748046875, 471.6541748046875, 471.6541748046875, 314.1894836425781, 314.1894836425781, 314.1894836425781, 314.1894836425781, 314.1894836425781, 260.4722595214844, 260.4722595214844, 260.4722595214844, 260.4722595214844, 260.4722595214844, 237.1627197265625, 237.1627197265625, 237.1627197265625, 237.1627197265625, 237.1627197265625, 215.93911743164062, 215.93911743164062, 215.93911743164062, 215.93911743164062, 215.93911743164062, 209.29537963867188, 209.29537963867188, 209.29537963867188, 209.29537963867188, 209.29537963867188, 196.6148223876953, 196.6148223876953, 196.6148223876953, 196.6148223876953, 196.6148223876953, 184.70252990722656, 184.70252990722656, 184.70252990722656, 184.70252990722656, 184.70252990722656, 179.01983642578125, 179.01983642578125, 179.01983642578125, 179.01983642578125, 179.01983642578125, 173.51197814941406, 173.51197814941406, 173.51197814941406, 173.51197814941406, 173.51197814941406, 162.9994354248047, 162.9994354248047, 162.9994354248047, 162.9994354248047, 162.9994354248047, 168.173583984375, 168.173583984375, 168.173583984375, 168.173583984375, 168.173583984375, 157.98446655273438, 157.98446655273438, 157.98446655273438, 157.98446655273438, 157.98446655273438, 153.12380981445312, 153.12380981445312, 153.12380981445312, 153.12380981445312, 153.12380981445312, 143.8465118408203, 143.8465118408203, 143.8465118408203, 143.8465118408203, 143.8465118408203, 143.8465118408203, 143.8465118408203, 143.8465118408203, 143.8465118408203, 143.8465118408203, 135.13128662109375, 135.13128662109375, 135.13128662109375, 135.13128662109375, 135.13128662109375, 130.97373962402344, 130.97373962402344, 130.97373962402344, 130.97373962402344, 130.97373962402344, 130.97373962402344, 130.97373962402344, 130.97373962402344, 130.97373962402344, 130.97373962402344, 126.94410705566406, 126.94410705566406, 126.94410705566406, 126.94410705566406, 126.94410705566406, 119.2529525756836, 119.2529525756836, 119.2529525756836, 119.2529525756836, 119.2529525756836, 115.58393096923828, 115.58393096923828, 115.58393096923828, 115.58393096923828, 115.58393096923828, 112.02778625488281, 112.02778625488281, 112.02778625488281, 112.02778625488281, 112.02778625488281, 112.02778625488281, 112.02778625488281, 112.02778625488281, 112.02778625488281, 112.02778625488281, 102.0024642944336, 102.0024642944336, 102.0024642944336, 102.0024642944336, 102.0024642944336, 105.24037170410156, 105.24037170410156, 105.24037170410156, 105.24037170410156, 105.24037170410156, 105.24037170410156, 105.24037170410156, 105.24037170410156, 105.24037170410156, 105.24037170410156, 102.0024642944336, 102.0024642944336, 102.0024642944336, 102.0024642944336, 102.0024642944336, 87.24734497070312, 87.24734497070312, 87.24734497070312, 87.24734497070312, 87.24734497070312, 92.87431335449219, 92.87431335449219, 92.87431335449219, 92.87431335449219, 92.87431335449219, 92.87431335449219, 92.87431335449219, 92.87431335449219, 92.87431335449219, 92.87431335449219, 90.0168685913086, 90.0168685913086, 90.0168685913086, 90.0168685913086, 90.0168685913086, 79.43961334228516, 79.43961334228516, 79.43961334228516, 79.43961334228516, 79.43961334228516, 79.43961334228516, 79.43961334228516, 79.43961334228516, 79.43961334228516, 79.43961334228516, 81.96129608154297, 81.96129608154297, 81.96129608154297, 81.96129608154297, 81.96129608154297, 79.43961334228516, 79.43961334228516, 79.43961334228516, 79.43961334228516, 79.43961334228516, 79.43961334228516, 79.43961334228516, 79.43961334228516, 79.43961334228516, 79.43961334228516, 65.8577651977539, 65.8577651977539, 65.8577651977539, 65.8577651977539, 65.8577651977539, 63.8315315246582, 63.8315315246582, 63.8315315246582, 63.8315315246582, 63.8315315246582, 65.8577651977539, 65.8577651977539, 65.8577651977539, 65.8577651977539, 65.8577651977539, 61.867645263671875, 61.867645263671875, 61.867645263671875, 61.867645263671875, 61.867645263671875, 59.96417999267578, 59.96417999267578, 59.96417999267578, 59.96417999267578, 59.96417999267578, 59.96417999267578, 59.96417999267578, 59.96417999267578, 59.96417999267578, 59.96417999267578, 61.867645263671875, 61.867645263671875, 61.867645263671875, 61.867645263671875, 61.867645263671875, 63.8315315246582, 63.8315315246582, 63.8315315246582, 63.8315315246582, 63.8315315246582, 58.1192741394043, 58.1192741394043, 58.1192741394043, 58.1192741394043, 58.1192741394043, 58.1192741394043, 58.1192741394043, 58.1192741394043, 58.1192741394043, 58.1192741394043, 58.1192741394043, 58.1192741394043, 58.1192741394043, 58.1192741394043, 58.1192741394043, 58.1192741394043, 58.1192741394043, 58.1192741394043]","[10.4375, 10.4375, 10.4375, 10.4375, 10.4375, 6.3125, 6.3125, 6.3125, 6.3125, 6.3125, 5.96875, 5.96875, 5.96875, 5.96875, 5.96875, 5.625, 5.625, 5.625, 5.625, 5.625, 5.46875, 5.46875, 5.46875, 5.46875, 5.46875, 5.375, 5.375, 5.375, 5.375, 5.375, 5.28125, 5.28125, 5.28125, 5.28125, 5.28125, 5.21875, 5.21875, 5.21875, 5.21875, 5.21875, 5.125, 5.125, 5.125, 5.125, 5.125, 5.09375, 5.09375, 5.09375, 5.09375, 5.09375, 5.03125, 5.03125, 5.03125, 5.03125, 5.03125, 5.03125, 5.03125, 5.03125, 5.03125, 5.03125, 4.96875, 4.96875, 4.96875, 4.96875, 4.96875, 4.9375, 4.9375, 4.9375, 4.9375, 4.9375, 4.90625, 4.90625, 4.90625, 4.90625, 4.90625, 4.90625, 4.90625, 4.90625, 4.90625, 4.90625, 4.84375, 4.84375, 4.84375, 4.84375, 4.84375, 4.8125, 4.8125, 4.8125, 4.8125, 4.8125, 4.8125, 4.8125, 4.8125, 4.8125, 4.8125, 4.75, 4.75, 4.75, 4.75, 4.75, 4.75, 4.75, 4.75, 4.75, 4.75, 4.6875, 4.6875, 4.6875, 4.6875, 4.6875, 4.65625, 4.65625, 4.65625, 4.65625, 4.65625, 4.625, 4.625, 4.625, 4.625, 4.625, 4.59375, 4.59375, 4.59375, 4.59375, 4.59375, 4.59375, 4.59375, 4.59375, 4.59375, 4.59375, 4.59375, 4.59375, 4.59375, 4.59375, 4.59375, 4.5625, 4.5625, 4.5625, 4.5625, 4.5625, 4.53125, 4.53125, 4.53125, 4.53125, 4.53125, 4.5, 4.5, 4.5, 4.5, 4.5, 4.46875, 4.46875, 4.46875, 4.46875, 4.46875, 4.46875, 4.46875, 4.46875, 4.46875, 4.46875, 4.4375, 4.4375, 4.4375, 4.4375, 4.4375, 4.4375, 4.4375, 4.4375, 4.4375, 4.4375, 4.40625, 4.40625, 4.40625, 4.40625, 4.40625, 4.40625, 4.40625, 4.40625, 4.40625, 4.40625, 4.375, 4.375, 4.375, 4.375, 4.375, 4.34375, 4.34375, 4.34375, 4.34375, 4.34375, 4.3125, 4.3125, 4.3125, 4.3125, 4.3125, 4.28125, 4.28125, 4.28125, 4.28125, 4.28125, 4.28125, 4.28125, 4.28125, 4.28125, 4.28125, 4.28125, 4.28125, 4.28125, 4.28125, 4.28125, 4.25, 4.25, 4.25, 4.25, 4.25, 4.21875, 4.21875, 4.21875, 4.21875, 4.21875, 4.1875, 4.1875, 4.1875, 4.1875, 4.1875, 4.21875, 4.21875, 4.21875, 4.21875, 4.21875, 4.21875, 4.21875, 4.21875, 4.21875, 4.21875, 4.15625, 4.15625, 4.15625, 4.15625, 4.15625, 4.1875, 4.1875, 4.1875, 4.1875, 4.1875, 4.15625, 4.15625, 4.15625, 4.15625, 4.15625, 4.15625, 4.15625, 4.15625]","[34115.02734375, 34115.02734375, 34115.02734375, 34115.02734375, 34115.02734375, 551.4195556640625, 551.4195556640625, 551.4195556640625, 551.4195556640625, 551.4195556640625, 391.01507568359375, 391.01507568359375, 391.01507568359375, 391.01507568359375, 391.01507568359375, 277.2712707519531, 277.2712707519531, 277.2712707519531, 277.2712707519531, 277.2712707519531, 237.1627197265625, 237.1627197265625, 237.1627197265625, 237.1627197265625, 237.1627197265625, 215.93911743164062, 215.93911743164062, 215.93911743164062, 215.93911743164062, 215.93911743164062, 196.6148223876953, 196.6148223876953, 196.6148223876953, 196.6148223876953, 196.6148223876953, 184.70252990722656, 184.70252990722656, 184.70252990722656, 184.70252990722656, 184.70252990722656, 168.173583984375, 168.173583984375, 168.173583984375, 168.173583984375, 168.173583984375, 162.9994354248047, 162.9994354248047, 162.9994354248047, 162.9994354248047, 162.9994354248047, 153.12380981445312, 153.12380981445312, 153.12380981445312, 153.12380981445312, 153.12380981445312, 153.12380981445312, 153.12380981445312, 153.12380981445312, 153.12380981445312, 153.12380981445312, 143.8465118408203, 143.8465118408203, 143.8465118408203, 143.8465118408203, 143.8465118408203, 139.4208221435547, 139.4208221435547, 139.4208221435547, 139.4208221435547, 139.4208221435547, 135.13128662109375, 135.13128662109375, 135.13128662109375, 135.13128662109375, 135.13128662109375, 135.13128662109375, 135.13128662109375, 135.13128662109375, 135.13128662109375, 135.13128662109375, 126.94410705566406, 126.94410705566406, 126.94410705566406, 126.94410705566406, 126.94410705566406, 123.0384521484375, 123.0384521484375, 123.0384521484375, 123.0384521484375, 123.0384521484375, 123.0384521484375, 123.0384521484375, 123.0384521484375, 123.0384521484375, 123.0384521484375, 115.58393096923828, 115.58393096923828, 115.58393096923828, 115.58393096923828, 115.58393096923828, 115.58393096923828, 115.58393096923828, 115.58393096923828, 115.58393096923828, 115.58393096923828, 108.58106231689453, 108.58106231689453, 108.58106231689453, 108.58106231689453, 108.58106231689453, 105.24037170410156, 105.24037170410156, 105.24037170410156, 105.24037170410156, 105.24037170410156, 102.0024642944336, 102.0024642944336, 102.0024642944336, 102.0024642944336, 102.0024642944336, 98.86418151855469, 98.86418151855469, 98.86418151855469, 98.86418151855469, 98.86418151855469, 98.86418151855469, 98.86418151855469, 98.86418151855469, 98.86418151855469, 98.86418151855469, 98.86418151855469, 98.86418151855469, 98.86418151855469, 98.86418151855469, 98.86418151855469, 95.82245635986328, 95.82245635986328, 95.82245635986328, 95.82245635986328, 95.82245635986328, 92.87431335449219, 92.87431335449219, 92.87431335449219, 92.87431335449219, 92.87431335449219, 90.0168685913086, 90.0168685913086, 90.0168685913086, 90.0168685913086, 90.0168685913086, 87.24734497070312, 87.24734497070312, 87.24734497070312, 87.24734497070312, 87.24734497070312, 87.24734497070312, 87.24734497070312, 87.24734497070312, 87.24734497070312, 87.24734497070312, 84.56302642822266, 84.56302642822266, 84.56302642822266, 84.56302642822266, 84.56302642822266, 84.56302642822266, 84.56302642822266, 84.56302642822266, 84.56302642822266, 84.56302642822266, 81.96129608154297, 81.96129608154297, 81.96129608154297, 81.96129608154297, 81.96129608154297, 81.96129608154297, 81.96129608154297, 81.96129608154297, 81.96129608154297, 81.96129608154297, 79.43961334228516, 79.43961334228516, 79.43961334228516, 79.43961334228516, 79.43961334228516, 76.99551391601562, 76.99551391601562, 76.99551391601562, 76.99551391601562, 76.99551391601562, 74.62661743164062, 74.62661743164062, 74.62661743164062, 74.62661743164062, 74.62661743164062, 72.33059692382812, 72.33059692382812, 72.33059692382812, 72.33059692382812, 72.33059692382812, 72.33059692382812, 72.33059692382812, 72.33059692382812, 72.33059692382812, 72.33059692382812, 72.33059692382812, 72.33059692382812, 72.33059692382812, 72.33059692382812, 72.33059692382812, 70.10521697998047, 70.10521697998047, 70.10521697998047, 70.10521697998047, 70.10521697998047, 67.94831085205078, 67.94831085205078, 67.94831085205078, 67.94831085205078, 67.94831085205078, 65.8577651977539, 65.8577651977539, 65.8577651977539, 65.8577651977539, 65.8577651977539, 67.94831085205078, 67.94831085205078, 67.94831085205078, 67.94831085205078, 67.94831085205078, 67.94831085205078, 67.94831085205078, 67.94831085205078, 67.94831085205078, 67.94831085205078, 63.8315315246582, 63.8315315246582, 63.8315315246582, 63.8315315246582, 63.8315315246582, 65.8577651977539, 65.8577651977539, 65.8577651977539, 65.8577651977539, 65.8577651977539, 63.8315315246582, 63.8315315246582, 63.8315315246582, 63.8315315246582, 63.8315315246582, 63.8315315246582, 63.8315315246582, 63.8315315246582]","[10.1875, 10.1875, 10.1875, 10.1875, 10.1875, 6.75, 6.75, 6.75, 6.75, 6.75, 6.5, 6.5, 6.5, 6.5, 6.5, 6.21875, 6.21875, 6.21875, 6.21875, 6.21875, 6.03125, 6.03125, 6.03125, 6.03125, 6.03125, 5.96875, 5.96875, 5.96875, 5.96875, 5.96875, 5.96875, 5.96875, 5.96875, 5.96875, 5.96875, 5.9375, 5.9375, 5.9375, 5.9375, 5.9375, 5.90625, 5.90625, 5.90625, 5.90625, 5.90625, 5.875, 5.875, 5.875, 5.875, 5.875, 5.875, 5.875, 5.875, 5.875, 5.875, 5.84375, 5.84375, 5.84375, 5.84375, 5.84375, 5.8125, 5.8125, 5.8125, 5.8125, 5.8125, 5.875, 5.875, 5.875, 5.875, 5.875, 5.8125, 5.8125, 5.8125, 5.8125, 5.8125, 5.78125, 5.78125, 5.78125, 5.78125, 5.78125, 5.59375, 5.59375, 5.59375, 5.59375, 5.59375, 5.75, 5.75, 5.75, 5.75, 5.75, 5.53125, 5.53125, 5.53125, 5.53125, 5.53125, 5.5625, 5.5625, 5.5625, 5.5625, 5.5625, 5.5625, 5.5625, 5.5625, 5.5625, 5.5625, 5.5625, 5.5625, 5.5625, 5.5625, 5.5625, 5.4375, 5.4375, 5.4375, 5.4375, 5.4375, 5.4375, 5.4375, 5.4375, 5.4375, 5.4375, 5.46875, 5.46875, 5.46875, 5.46875, 5.46875, 5.34375, 5.34375, 5.34375, 5.34375, 5.34375, 5.375, 5.375, 5.375, 5.375, 5.375, 5.34375, 5.34375, 5.34375, 5.34375, 5.34375, 5.3125, 5.3125, 5.3125, 5.3125, 5.3125, 5.28125, 5.28125, 5.28125, 5.28125, 5.28125, 5.28125, 5.28125, 5.28125, 5.28125, 5.28125, 5.28125, 5.28125, 5.28125, 5.28125, 5.28125, 5.25, 5.25, 5.25, 5.25, 5.25, 5.21875, 5.21875, 5.21875, 5.21875, 5.21875, 5.21875, 5.21875, 5.21875, 5.21875, 5.21875, 5.15625, 5.15625, 5.15625, 5.15625, 5.15625, 5.1875, 5.1875, 5.1875, 5.1875, 5.1875, 5.15625, 5.15625, 5.15625, 5.15625, 5.15625, 5.125, 5.125, 5.125, 5.125, 5.125, 5.125, 5.125, 5.125, 5.125, 5.125, 5.125, 5.125, 5.125, 5.125, 5.125, 5.125, 5.125, 5.125, 5.125, 5.125, 5.0625, 5.0625, 5.0625, 5.0625, 5.0625, 5.0625, 5.0625, 5.0625, 5.0625, 5.0625, 5.0625, 5.0625, 5.0625, 5.0625, 5.0625, 5.0625, 5.0625, 5.0625, 5.0625, 5.0625, 5.0625, 5.0625, 5.0625, 5.0625, 5.0625, 5.03125, 5.03125, 5.03125, 5.03125, 5.03125, 5.03125, 5.03125, 5.03125, 5.03125, 5.03125, 5.03125, 5.03125, 5.03125, 5.03125, 5.03125, 5.0, 5.0, 5.0]","[26568.814453125, 26568.814453125, 26568.814453125, 26568.814453125, 26568.814453125, 854.0550537109375, 854.0550537109375, 854.0550537109375, 854.0550537109375, 854.0550537109375, 665.1388549804688, 665.1388549804688, 665.1388549804688, 665.1388549804688, 665.1388549804688, 502.0732421875, 502.0732421875, 502.0732421875, 502.0732421875, 502.0732421875, 416.2333679199219, 416.2333679199219, 416.2333679199219, 416.2333679199219, 416.2333679199219, 391.01507568359375, 391.01507568359375, 391.01507568359375, 391.01507568359375, 391.01507568359375, 391.01507568359375, 391.01507568359375, 391.01507568359375, 391.01507568359375, 391.01507568359375, 378.9848327636719, 378.9848327636719, 378.9848327636719, 378.9848327636719, 378.9848327636719, 367.3246765136719, 367.3246765136719, 367.3246765136719, 367.3246765136719, 367.3246765136719, 356.0233154296875, 356.0233154296875, 356.0233154296875, 356.0233154296875, 356.0233154296875, 356.0233154296875, 356.0233154296875, 356.0233154296875, 356.0233154296875, 356.0233154296875, 345.06964111328125, 345.06964111328125, 345.06964111328125, 345.06964111328125, 345.06964111328125, 334.4529724121094, 334.4529724121094, 334.4529724121094, 334.4529724121094, 334.4529724121094, 356.0233154296875, 356.0233154296875, 356.0233154296875, 356.0233154296875, 356.0233154296875, 334.4529724121094, 334.4529724121094, 334.4529724121094, 334.4529724121094, 334.4529724121094, 324.1629333496094, 324.1629333496094, 324.1629333496094, 324.1629333496094, 324.1629333496094, 268.74053955078125, 268.74053955078125, 268.74053955078125, 268.74053955078125, 268.74053955078125, 314.1894836425781, 314.1894836425781, 314.1894836425781, 314.1894836425781, 314.1894836425781, 252.45838928222656, 252.45838928222656, 252.45838928222656, 252.45838928222656, 252.45838928222656, 260.4722595214844, 260.4722595214844, 260.4722595214844, 260.4722595214844, 260.4722595214844, 260.4722595214844, 260.4722595214844, 260.4722595214844, 260.4722595214844, 260.4722595214844, 260.4722595214844, 260.4722595214844, 260.4722595214844, 260.4722595214844, 260.4722595214844, 229.86599731445312, 229.86599731445312, 229.86599731445312, 229.86599731445312, 229.86599731445312, 229.86599731445312, 229.86599731445312, 229.86599731445312, 229.86599731445312, 229.86599731445312, 237.1627197265625, 237.1627197265625, 237.1627197265625, 237.1627197265625, 237.1627197265625, 209.29537963867188, 209.29537963867188, 209.29537963867188, 209.29537963867188, 209.29537963867188, 215.93911743164062, 215.93911743164062, 215.93911743164062, 215.93911743164062, 215.93911743164062, 209.29537963867188, 209.29537963867188, 209.29537963867188, 209.29537963867188, 209.29537963867188, 202.8560333251953, 202.8560333251953, 202.8560333251953, 202.8560333251953, 202.8560333251953, 196.6148223876953, 196.6148223876953, 196.6148223876953, 196.6148223876953, 196.6148223876953, 196.6148223876953, 196.6148223876953, 196.6148223876953, 196.6148223876953, 196.6148223876953, 196.6148223876953, 196.6148223876953, 196.6148223876953, 196.6148223876953, 196.6148223876953, 190.5656280517578, 190.5656280517578, 190.5656280517578, 190.5656280517578, 190.5656280517578, 184.70252990722656, 184.70252990722656, 184.70252990722656, 184.70252990722656, 184.70252990722656, 184.70252990722656, 184.70252990722656, 184.70252990722656, 184.70252990722656, 184.70252990722656, 173.51197814941406, 173.51197814941406, 173.51197814941406, 173.51197814941406, 173.51197814941406, 179.01983642578125, 179.01983642578125, 179.01983642578125, 179.01983642578125, 179.01983642578125, 173.51197814941406, 173.51197814941406, 173.51197814941406, 173.51197814941406, 173.51197814941406, 168.173583984375, 168.173583984375, 168.173583984375, 168.173583984375, 168.173583984375, 168.173583984375, 168.173583984375, 168.173583984375, 168.173583984375, 168.173583984375, 168.173583984375, 168.173583984375, 168.173583984375, 168.173583984375, 168.173583984375, 168.173583984375, 168.173583984375, 168.173583984375, 168.173583984375, 168.173583984375, 157.98446655273438, 157.98446655273438, 157.98446655273438, 157.98446655273438, 157.98446655273438, 157.98446655273438, 157.98446655273438, 157.98446655273438, 157.98446655273438, 157.98446655273438, 157.98446655273438, 157.98446655273438, 157.98446655273438, 157.98446655273438, 157.98446655273438, 157.98446655273438, 157.98446655273438, 157.98446655273438, 157.98446655273438, 157.98446655273438, 157.98446655273438, 157.98446655273438, 157.98446655273438, 157.98446655273438, 157.98446655273438, 153.12380981445312, 153.12380981445312, 153.12380981445312, 153.12380981445312, 153.12380981445312, 153.12380981445312, 153.12380981445312, 153.12380981445312, 153.12380981445312, 153.12380981445312, 153.12380981445312, 153.12380981445312, 153.12380981445312, 153.12380981445312, 153.12380981445312, 148.4126739501953, 148.4126739501953, 148.4126739501953]","[1.7824038597905905, 0.6654408511341392, 0.30444982016339617, 0.5232564613632438, 0.3843067942553543, 0.3967767020819346, 0.33487401033698105, 0.40504532103963337, 0.2830313938792976, 0.540045901577708, 0.3186921789222249, 0.24492310808090742, 0.2848758811868695, 0.336520987107117, 0.3345420831477915, 0.2886178866144778, 0.2609298346497868, 0.2848572697569407, 0.25874312450520853, 0.25623235560701796, 0.26226185729595886, 0.28872448683188706, 0.27770205392165753, 0.27130533603939677, 0.3018250754999233, 0.2755651298133435, 0.29796250305798494, 0.2736703204032446, 0.24664578156651182, 0.25311200438096737, 0.25929390596691737, 0.26366164182909796, 0.31400224283459605, 0.2618775922787966, 0.2519355534924532, 0.2460400497136436, 0.26370661824525493, 0.2579769986093276, 0.23541881656233463, 0.26611302101271267, 0.2847785640238402, 0.25459902447767097, 0.24918432377937458, 0.2604545208082673, 0.2452357176425573, 0.270804125354073, 0.23035553409976617, 0.24964461017828296, 0.23322638107608515, 0.27839268781988596, 0.24801817534587686, 0.2562663040048054, 0.264575221568903, 0.26298642380954784, 0.2367817605129883, 0.28614094947360025, 0.2505218931969634, 0.23695755955369469, 0.26385720786410416, 0.24062497927021, 0.22938133425994048, 0.23157823292091795, 0.2470444831829633, 0.24018132547237794, 0.23971456761818793, 0.31022122043666445, 0.23915371205410507, 0.24461020070725567, 0.24339678154293518, 0.23483927957085335, 0.24307897104774231, 0.23141039924980347, 0.21847761529968981, 0.2316598074329639, 0.2547025013496578, 0.24152532924954973, 0.24456824608804512, 0.2294019281439169, 0.24603803238450464, 0.2557650824712879, 0.2517662515618509, 0.2416543241249797, 0.23037528220282857, 0.2257486955656423, 0.3339060032994359, 0.18176503835238175, 0.18195826648271893, 0.1753955031641308, 0.18855943867810634, 0.17791707000390627, 0.2447387804942947, 0.2138923022387501, 0.1857462742497038, 0.23622936828651853, 0.20627526806146532, 0.17915860430116404, 0.1773908728809097, 0.19638454167541114, 0.1776567145638049, 0.23966372900213065, 0.18666738790579065, 0.19864072033681995, 0.22404645685883326, 0.21922088021796712, 0.19006879236496566, 0.19783631288475845, 0.18381858118888256, 0.20342501319883505, 0.23505047261181763, 0.19146701895871931, 0.18893829849182445, 0.21677944027596793, 0.1791137201771512, 0.2811473370036359, 0.19176245081410037, 0.2156078948429656, 0.16532572831978276, 0.1839153508949533, 0.18148371557584903, 0.1677805309862473, 0.15373598312054654, 0.19033685551204765, 0.19816722621221416, 0.1789560784719176, 0.17333749521664205, 0.1646837154209522, 0.16575089807525206, 0.16493366489480182, 0.18464940794580198, 0.18788314060486552, 0.17985218497112515, 0.15752607824397344, 0.19488816919186258, 0.16619880094485223, 0.16378608780947554, 0.25321359423256756, 0.1641575610712648, 0.1792604083465467, 0.1654421185527347, 0.16279808266238502, 0.15609309189561538, 0.2068070083465744, 0.1523529982300542, 0.1848848650013108, 0.20576920835173945, 0.17003769342769356, 0.16413509993400555, 0.2008122012812047, 0.17738339376962076, 0.14701714958062614, 0.14938589275412695, 0.19503806349319885, 0.1851291257872952, 0.1441742335301843, 0.1654316450048805, 0.15878875204234255, 0.15702218329955167, 0.2703083891178951, 0.14486082355204724, 0.18459257467486567, 0.1739473476040875, 0.18626125680805258, 0.15421507159286582, 0.15523715015065634, 0.1490337341366827, 0.1718314073053102, 0.25156273279120056, 0.13075828161344646, 0.15287907446394414, 0.14561619838202094, 0.16223978938939346, 0.15980325553854377, 0.14362254229921445, 0.1539064513754465, 0.15040881550839855, 0.1460067303122546, 0.11635522377600879, 0.4250421669370689, 0.10997234367552346, 0.1167953915083417, 0.15551434306563205, 0.16922181750184984, 0.12744134207793334, 0.14365351954101485, 0.14396054649550935, 0.15800430513295088, 0.1416228704950548, 0.14356756993882439, 0.14791321837753132, 0.18528138007506306, 0.11684388407571736, 0.29747014580154046, 0.11179129227265854, 0.20816224145907014, 0.15607881258086445, 0.10085867275419061, 0.14349580793169248, 0.21117465787710216, 0.10749007181681404, 0.16352140767096973, 0.13471667918656047, 0.16364058391089015, 0.10161461289791514, 0.17513561317068407, 0.17078622652940753, 0.2394716640527592, 0.0850399324243827, 0.10874608465572978, 0.28503581869564926, 0.09751717678247936, 0.13875028708668277, 0.25226094846538155, 0.07543468363817157, 0.08218359619598035, 0.2700718326557339, 0.10411505247750831, 0.11258784107222382, 0.19208250185075257, 0.06505019802128009, 0.2293481309970151, 0.14659937179265484, 0.058270592936816905, 0.6363426350785676, 0.10819943333303288, 0.05529036481756519, 0.4400938622755066, 0.11806155617614593, 0.3217194130862985, 0.12706102258743313, 0.059337974382947044, 0.7854286598452898, 0.10256351820770776, 0.04457614179887732, 0.5201590847948069, 0.09222103185674069, 0.041177208365170796, 0.3773873516797479, 0.1404391976606942, 0.05044025374808348, 0.08097702062581189, 0.19882479290263916, 0.06700422415014097, 0.05918807373176657, 0.24955988386894948, 0.07078559708555367, 0.05556225197570285, 0.34416669091012747, 0.07699117408191444, 0.101555308215729, 0.12419010166008775, 0.06144949513272513, 0.7486368445870794, 0.00794173561033328]","[0.0, 56.944015625, 59.796204833984376, 62.61807495117188, 65.5003408203125, 68.31492016601563, 93.51785571289062, 96.34719580078125, 99.16694018554688, 101.97668090820312, 104.8007431640625, 130.5643974609375, 133.42506982421875, 136.26348754882812, 139.09821826171876, 141.95094091796875, 168.34592724609377, 171.1715244140625, 173.99228442382812, 176.822771484375, 179.64388598632814, 203.04458911132815, 205.89625415039066, 208.74541992187503, 211.59784033203127, 214.47413989257814, 239.42396020507815, 242.25502587890628, 245.07312353515627, 247.9039255371094, 250.74121142578127, 278.01857275390626, 280.8496086425781, 283.68272705078124, 286.5202734375, 289.36778857421876, 316.8829975585938, 319.71657543945315, 322.5693256835938, 325.39605712890625, 328.23665942382814, 353.34627661132816, 356.20204833984377, 359.0697802734375, 361.9059853515625, 364.7554091796875, 390.7394482421875, 393.57064331054687, 396.40908178710936, 399.2452829589844, 402.0863083496094, 427.9684821777344, 430.81512817382816, 433.6583393554688, 436.49820507812507, 439.35746948242195, 467.08188745117195, 469.92321362304693, 472.7763293457032, 475.64278979492195, 478.50485034179695, 504.90483666992196, 507.73628466796885, 510.58289965820325, 513.4658688964845, 516.3118127441408, 543.8877502441408, 546.764422607422, 549.6001149902345, 552.4420312500001, 555.2904465332033, 581.5444484863283, 584.3920107421877, 587.2298969726564, 590.0647451171877, 592.9104914550784, 618.6789836425784, 621.5031591796877, 624.3428005371096, 627.2150153808597, 630.0811994628909, 654.7860764160159, 657.6387082519534, 660.735925292969, 663.8273103027346, 666.9285634765628, 694.6692177734378, 698.7280988769535, 703.2757580566409, 706.8447985839847, 710.9242783203129, 737.5924423828128, 742.1267333984378, 746.6803369140628, 750.5309875488284, 755.5913928222659, 783.5800354003909, 788.8967038574222, 793.4533820800784, 798.2523537597659, 802.5544191894534, 834.5240812988284, 839.3552238769533, 843.9553449707033, 848.8002521972659, 853.8727971191408, 882.1870080566408, 887.749338623047, 893.078539794922, 898.9800754394532, 905.044289794922, 934.321342529297, 940.096660888672, 945.9010607910158, 951.715981201172, 958.2556418457033, 985.5984113769533, 992.9200119628908, 999.2391618652346, 1005.3328815917971, 1012.4083259277346, 1045.0228083496097, 1050.7917067871097, 1056.8362805175784, 1063.4597453613285, 1070.3051477050785, 1102.7126574707036, 1110.2623366699222, 1117.6056984863285, 1123.9479235839847, 1130.5268820800784, 1169.2624484863284, 1175.8116857910159, 1183.354492431641, 1191.670752197266, 1199.2424113769534, 1230.8040812988284, 1239.3491662597658, 1247.6623059082033, 1256.4737326660158, 1266.0165168457033, 1296.6307121582033, 1304.9203801269534, 1314.4419055175783, 1323.4593762207032, 1333.2796721191407, 1366.6095666503907, 1375.8845510253907, 1384.883493408203, 1394.9002395019531, 1405.1985158691407, 1437.0602678222656, 1446.350139892578, 1455.9115451660155, 1466.7413752441405, 1478.306352783203, 1514.489719970703, 1526.0051945800778, 1537.3303771972653, 1551.6163059082028, 1564.9711369628903, 1602.8534846191403, 1615.8087707519528, 1629.5108283691402, 1642.5310793457027, 1655.5577551269528, 1692.9609699707028, 1706.4309055175777, 1723.1628430175776, 1737.4456721191402, 1751.0076730957028, 1787.1979934082028, 1804.3365148925777, 1823.8227492675778, 1840.3937395019527, 1857.0061379394526, 1898.1030598144525, 1915.3063937988275, 1930.0886867675774, 1955.6982883300775, 1976.4595031738274, 2016.2198703613274, 2036.3863566894524, 2062.2097727050773, 2085.8815676269523, 2111.148581298827, 2156.9463703613274, 2181.6742902832025, 2208.0873723144523, 2234.344618408202, 2264.030727783202, 2325.406130126952, 2357.542044189452, 2402.668719970702, 2439.990372314452, 2491.098509033202, 2571.217024658202, 2611.617493408202, 2652.410001220702, 2701.7654387207017, 2741.422247314452, 2811.431255126952, 2864.220825439452, 2920.475309814452, 2968.439704345702, 3024.757454345702, 3134.385938720702, 3268.2187668457022, 3357.134876220702, 3438.725024658202, 3594.082149658202, 3742.993243408202, 3883.951212158202, 4112.921196533202, 4258.714946533202, 4399.4137121582025, 4687.432555908203, 4892.5913684082025, 5151.143555908203, 5532.906930908202, 5753.127399658202, 6066.542805908202, 6379.245524658202, 6561.174649658202, 7042.387618408202, 7431.405962158202, 7654.897415283202, 8038.083165283201, 8367.5277902832, 9051.6275402832, 9826.6087902832, 10261.239352783201, 11596.7431027832, 12765.085102783201, 13396.037477783202, 14898.226227783201, 16032.3173527832, 16552.8831965332, 18142.9093215332, 20237.8333215332, 21259.6546340332, 22191.3304465332, 23527.6300715332, 24322.5421965332, 25229.3084465332, 27037.415946533198, 28148.760446533197, 29002.117259033195, 30858.929259033197, 32069.859009033196, 33623.9177590332, 35606.6506340332, 36708.5363840332]","[67247, 743102, 1418517, 2100327, 2770393, 3443384, 4113626, 4787449, 5451513, 6145103, 6818425, 7511374, 8205347, 8870104, 9560339, 10207160, 10883744, 11562916, 12234470, 12903372, 13588282, 14273907, 14945709, 15633214, 16302974, 17009275, 17702794, 18366406, 19039873, 19712781, 20382617, 21054083, 21734847, 22400677, 23082698, 23766558, 24452374, 25139429, 25818801, 26507686, 27199055, 27872392, 28541146, 29212627, 29897126, 30598522, 31274752, 31957632, 32632868, 33300551, 33993733, 34664908, 35359018, 36033929, 36712999, 37390734, 38048636, 38711684, 39382532, 40068608, 40733083, 41417107, 42089010, 42771725, 43430963, 44113049, 44819444, 45491280, 46185796, 46862049, 47535842, 48216844, 48894490, 49571184, 50249691, 50956874, 51634226, 52304090, 52969811, 53639651, 54304224, 54970852, 55714132, 56470289, 57217426, 58458785, 59480475, 60617339, 61495613, 62511292, 63481236, 64631824, 65807969, 66732824, 68000283, 69320134, 70695176, 71867992, 73076417, 74153800, 75300159, 76560244, 77727548, 78944434, 80233242, 81587114, 83006412, 84367209, 85852960, 87418723, 88829729, 90316628, 91805879, 93291867, 94971509, 96549067, 98430944, 100049811, 101581236, 103413685, 105245849, 106717653, 108264372, 109951393, 111734468, 113644311, 115596233, 117494100, 119135810, 120842275, 122661019, 124366901, 126305619, 128478137, 130452745, 132282317, 134517151, 136677786, 138953251, 141434684, 143741585, 145915840, 148437914, 150811048, 153388065, 156036442, 158479507, 160862600, 163540883, 166268680, 168864949, 171331646, 173843256, 176695353, 179751150, 182987227, 186044293, 189027495, 192839208, 196399731, 199766112, 203278849, 206953367, 210456173, 213907390, 217239623, 220815773, 225237747, 229019351, 232626048, 236119310, 240720811, 245948104, 250351330, 254787424, 259448804, 264089473, 268035568, 274892534, 280444962, 284975380, 290402423, 297356302, 303673137, 310410296, 316942687, 323627039, 330748517, 337736343, 345627810, 355438403, 364070596, 376208005, 386150523, 399953726, 414344244, 425375419, 436325350, 449526528, 460074042, 472548202, 486924092, 502049234, 514783535, 529846388, 552887205, 589062324, 612832394, 634802012, 676524104, 710246105, 748278163, 809620116, 848798696, 886632712, 957817725, 1013166728, 1082634665, 1185352550, 1244524746, 1322593016, 1406910209, 1455807324, 1585124689, 1689519861, 1743512838, 1847012088, 1935457750, 2119434461, 2327998792, 2438839796, 2798879677, 3113465279, 3283166723, 3686800354, 3985042607, 4125136459, 4552619297, 5116756030, 5391070852, 5635394952, 5995103277, 6202841109, 6447270762, 6934179538, 7226705205, 7456219774, 7955792898, 8281432312, 8699928914, 9227911650, 9524554159, 10000041770]","[6.7247e-06, 7.43102e-05, 0.0001418517, 0.0002100327, 0.0002770393, 0.0003443384, 0.0004113626, 0.0004787449, 0.0005451513, 0.0006145103, 0.0006818425, 0.0007511374, 0.0008205347, 0.0008870104, 0.0009560339, 0.001020716, 0.0010883744, 0.0011562916, 0.001223447, 0.0012903372, 0.0013588282, 0.0014273907, 0.0014945709, 0.0015633214, 0.0016302974, 0.0017009275, 0.0017702794, 0.0018366406, 0.0019039873, 0.0019712781, 0.0020382617, 0.0021054083, 0.0021734847, 0.0022400677, 0.0023082698, 0.0023766558, 0.0024452374, 0.0025139429, 0.0025818801, 0.0026507686, 0.0027199055, 0.0027872392, 0.0028541146, 0.0029212627, 0.0029897126, 0.0030598522, 0.0031274752, 0.0031957632, 0.0032632868, 0.0033300551, 0.0033993733, 0.0034664908, 0.0035359018, 0.0036033929, 0.0036712999, 0.0037390734, 0.0038048636, 0.0038711684, 0.0039382532, 0.0040068608, 0.0040733083, 0.0041417107, 0.004208901, 0.0042771725, 0.0043430963, 0.0044113049, 0.0044819444, 0.004549128, 0.0046185796, 0.0046862049, 0.0047535842, 0.0048216844, 0.004889449, 0.0049571184, 0.0050249691, 0.0050956874, 0.0051634226, 0.005230409, 0.0052969811, 0.0053639651, 0.0054304224, 0.0054970852, 0.0055714132, 0.0056470289, 0.0057217426, 0.0058458785, 0.0059480475, 0.0060617339, 0.0061495613, 0.0062511292, 0.0063481236, 0.0064631824, 0.0065807969, 0.0066732824, 0.0068000283, 0.0069320134, 0.0070695176, 0.0071867992, 0.0073076417, 0.00741538, 0.0075300159, 0.0076560244, 0.0077727548, 0.0078944434, 0.0080233242, 0.0081587114, 0.0083006412, 0.0084367209, 0.008585296, 0.0087418723, 0.0088829729, 0.0090316628, 0.0091805879, 0.0093291867, 0.0094971509, 0.0096549067, 0.0098430944, 0.0100049811, 0.0101581236, 0.0103413685, 0.0105245849, 0.0106717653, 0.0108264372, 0.0109951393, 0.0111734468, 0.0113644311, 0.0115596233, 0.01174941, 0.011913581, 0.0120842275, 0.0122661019, 0.0124366901, 0.0126305619, 0.0128478137, 0.0130452745, 0.0132282317, 0.0134517151, 0.0136677786, 0.0138953251, 0.0141434684, 0.0143741585, 0.014591584, 0.0148437914, 0.0150811048, 0.0153388065, 0.0156036442, 0.0158479507, 0.01608626, 0.0163540883, 0.016626868, 0.0168864949, 0.0171331646, 0.0173843256, 0.0176695353, 0.017975115, 0.0182987227, 0.0186044293, 0.0189027495, 0.0192839208, 0.0196399731, 0.0199766112, 0.0203278849, 0.0206953367, 0.0210456173, 0.021390739, 0.0217239623, 0.0220815773, 0.0225237747, 0.0229019351, 0.0232626048, 0.023611931, 0.0240720811, 0.0245948104, 0.025035133, 0.0254787424, 0.0259448804, 0.0264089473, 0.0268035568, 0.0274892534, 0.0280444962, 0.028497538, 0.0290402423, 0.0297356302, 0.0303673137, 0.0310410296, 0.0316942687, 0.0323627039, 0.0330748517, 0.0337736343, 0.034562781, 0.0355438403, 0.0364070596, 0.0376208005, 0.0386150523, 0.0399953726, 0.0414344244, 0.0425375419, 0.043632535, 0.0449526528, 0.0460074042, 0.0472548202, 0.0486924092, 0.0502049234, 0.0514783535, 0.0529846388, 0.0552887205, 0.0589062324, 0.0612832394, 0.0634802012, 0.0676524104, 0.0710246105, 0.0748278163, 0.0809620116, 0.0848798696, 0.0886632712, 0.0957817725, 0.1013166728, 0.1082634665, 0.118535255, 0.1244524746, 0.1322593016, 0.1406910209, 0.1455807324, 0.1585124689, 0.1689519861, 0.1743512838, 0.1847012088, 0.193545775, 0.2119434461, 0.2327998792, 0.2438839796, 0.2798879677, 0.3113465279, 0.3283166723, 0.3686800354, 0.3985042607, 0.4125136459, 0.4552619297, 0.511675603, 0.5391070852, 0.5635394952, 0.5995103277, 0.6202841109, 0.6447270762, 0.6934179538, 0.7226705205, 0.7456219774, 0.7955792898, 0.8281432312, 0.8699928914, 0.922791165, 0.9524554159, 1.000004177]","[106, 106, 106, 106, 106, 106, 106, 106, 106, 106, 106, 106, 106, 106, 106, 106, 106, 106, 106, 106, 106, 106, 106, 106, 106, 106, 106, 106, 106, 106, 106, 106, 106, 106, 106, 106, 106, 106, 106, 106, 106, 106, 106, 106, 106, 106, 106, 106, 106, 106, 106, 106, 106, 106, 106, 106, 106, 106, 106, 106, 106, 106, 106, 106, 106, 106, 106, 106, 106, 106, 106, 106, 106, 106, 106, 106, 106, 106, 106, 106, 106, 106, 106, 106, 106, 106, 106, 106, 106, 106, 106, 106, 106, 106, 106, 106, 106, 106, 106, 106, 106, 106, 106, 106, 106, 106, 106, 106, 106, 106, 106, 106, 106, 106, 106, 106, 106, 106, 106, 106, 106, 106, 106, 106, 106, 106, 106, 106, 106, 106, 106, 106, 106, 106, 106, 106, 106, 106, 106, 106, 106, 106, 106, 106, 106, 106, 106, 106, 106, 106, 106, 106, 106, 106, 106, 106, 106, 106, 106, 106, 106, 106, 106, 106, 106, 106, 106, 106, 106, 106, 106, 106, 106, 106, 106, 106, 106, 106, 106, 106, 106, 106, 106, 106, 106, 106, 106, 106, 106, 106, 106, 106, 106, 106, 106, 106, 106, 106, 106, 106, 106, 106, 106, 106, 106, 106, 106, 106, 106, 106, 106, 106, 106, 106, 106, 106, 106, 106, 106, 106, 106, 106, 106, 106, 106, 106, 106, 106, 106, 106, 106, 106, 106, 106, 106, 106, 106, 106, 106, 106, 106, 106, 106, 106, 106, 106, 106, 106, 106, 106, 106, 106, 106]","[1024, 1024, 1024, 1024, 1024, 1024, 1024, 1024, 1024, 1024, 1024, 1024, 1024, 1024, 1024, 1024, 1024, 1024, 1024, 1024, 1024, 1024, 1024, 1024, 1024, 1024, 1024, 1024, 1024, 1024, 1024, 1024, 1024, 1024, 1024, 1024, 1024, 1024, 1024, 1024, 1024, 1024, 1024, 1024, 1024, 1024, 1024, 1024, 1024, 1024, 1024, 1024, 1024, 1024, 1024, 1024, 1024, 1024, 1024, 1024, 1024, 1024, 1024, 1024, 1024, 1024, 1024, 1024, 1024, 1024, 1024, 1024, 1024, 1024, 1024, 1024, 1024, 1024, 1024, 1024, 1024, 1024, 1024, 1024, 1024, 1024, 1024, 1024, 1024, 1024, 1024, 1024, 1024, 1024, 1024, 1024, 1024, 1024, 1024, 1024, 1024, 1024, 1024, 1024, 1024, 1024, 1024, 1024, 1024, 1024, 1024, 1024, 1024, 1024, 1024, 1024, 1024, 1024, 1024, 1024, 1024, 1024, 1024, 1024, 1024, 1024, 1024, 1024, 1024, 1024, 1024, 1024, 1024, 1024, 1024, 1024, 1024, 1024, 1024, 1024, 1024, 1024, 1024, 1024, 1024, 1024, 1024, 1024, 1024, 1024, 1024, 1024, 1024, 1024, 1024, 1024, 1024, 1024, 1024, 1024, 1024, 1024, 1024, 1024, 1024, 1024, 1024, 1024, 1024, 1024, 1024, 1024, 1024, 1024, 1024, 1024, 1024, 1024, 1024, 1024, 1024, 1024, 1024, 1024, 1024, 1024, 1024, 1024, 1024, 1024, 1024, 1024, 1024, 1024, 1024, 1024, 1024, 1024, 1024, 1024, 1024, 1024, 1024, 1024, 1024, 1024, 1024, 1024, 1024, 1024, 1024, 1024, 1024, 1024, 1024, 1024, 1024, 1024, 1024, 1024, 1024, 1024, 1024, 1024, 1024, 1024, 1024, 1024, 1024, 1024, 1024, 1024, 1024, 1024, 1024, 1024, 1024, 1024, 1024, 1024, 1024, 1024, 1024, 1024, 1024, 1024, 1024, 1024, 1024, 1024, 1024, 1024, 1024]","[5.051487918244324e-05, 0.0002980377871764151, 0.0005455606951703869, 0.0007930836031643588, 0.0010406065111583308, 0.0012881294191523025, 0.0015356523271462745, 0.0017831752351402462, 0.002030698143134218, 0.00227822105112819, 0.002525743959122162, 0.002084864853703878, 0.0019797565083994858, 0.0019190239170720866, 0.001876577973342039, 0.0018440967772343044, 0.0018178704752361996, 0.0017959268981150428, 0.0017770944945941164, 0.0017606215429044787, 0.0017459974819933847, 0.0017328600308405746, 0.0017209430284930395, 0.0017100453160035349, 0.0017000112443709271, 0.0016907179642908427, 0.0016820668538598375, 0.0016739775685819165, 0.001666383807903993, 0.001659230237319848, 0.0016524702077062364, 0.0016460640366920813, 0.0016399776939358295, 0.0016341817817068602, 0.0016286507347358853, 0.001623362185173344, 0.0016182964534668604, 0.0016134361363944851, 0.0016087657708650858, 0.0016042715573892626, 0.0015999411309722037, 0.001595763370012311, 0.0015917282358979378, 0.0015878266375807335, 0.0015840503166090038, 0.001580391749028161, 0.0015768440612694823, 0.0015734009577049383, 0.0015700566579828854, 0.0015668058426049915, 0.0015636436054798802, 0.001560565412409355, 0.0015575670646406814, 0.0015546446667623226, 0.001551794598337809, 0.001549013488768455, 0.0015462981949546683, 0.0015436457813909244, 0.0015410535023837417, 0.0015385187861272065, 0.0015360392204084876, 0.0015336125397475892, 0.0015312366138024408, 0.0015289094368931507, 0.0015266291185185342, 0.001524393874754488, 0.001522202020437827, 0.0015200519620512543, 0.001517942191235493, 0.0015158712788635432, 0.0015138378696197524, 0.0015118406770330696, 0.0015098784789196857, 0.0015079501131953113, 0.0015060544740217751, 0.0015041905082564956, 0.0015023572121767627, 0.0015005536284537575, 0.0014987788433538582, 0.001497031984147097, 0.0014953122167046771, 0.0014936187432692833, 0.001491950800383511, 0.0014903076569631828, 0.0014886886125035895, 0.0014870929954078217, 0.001485520161427383, 0.0014839694922061735, 0.0014824403939197467, 0.001480932296002478, 0.0014794446499559267, 0.0014779769282322716, 0.0014765286231872335, 0.0014750992460973616, 0.0014736883262370156, 0.0014722954100107476, 0.001470920060137152, 0.0014695618548805746, 0.0014682203873273578, 0.0014668952647035635, 0.0014655861077313675, 0.0014642925500215275, 0.0014630142374995273, 0.0014617508278631955, 0.0014605019900697464, 0.001459267403850359, 0.0014580467592505393, 0.0014568397561946468, 0.0014556461040730762, 0.0014544655213507042, 0.0014532977351952975, 0.0014521424811246777, 0.0014509995026715252, 0.0014498685510647706, 0.0014487493849266056, 0.0014476417699842026, 0.0014465454787952986, 0.0014454602904868516, 0.0014443859905060312, 0.001443322370382854, 0.0014422692275038174, 0.0014412263648959259, 0.0014401935910205463, 0.0014391707195765622, 0.0014381575693123239, 0.0014371539638459354, 0.001436159731493436, 0.0014351747051044622, 0.0014341987219050104, 0.0014332316233469302, 0.001432273254963809, 0.0014313234662329246, 0.0014303821104429668, 0.0014294490445672316, 0.0014285241291420324, 0.0014276072281500637, 0.0014266982089084811, 0.001425796941961471, 0.0014249033009770976, 0.0014240171626482205, 0.0014231384065972984, 0.0014222669152848917, 0.0014214025739216999, 0.0014205452703839616, 0.0014196948951320787, 0.001418851341132303, 0.0014180145037813623, 0.001417184280833884, 0.001416360572332502, 0.0014155432805405188, 0.0014147323098770241, 0.0014139275668543514, 0.0014131289600177808, 0.0014123363998873885, 0.0014115497989019535, 0.0014107690713648325, 0.0014099941333917253, 0.0014092249028602485, 0.0014084612993612439, 0.0014077032441517513, 0.0014069506601095798, 0.0014062034716894076, 0.0014054616048803546, 0.0014047249871649676, 0.0014039935474795602, 0.0014032672161758558, 0.0014025459249838842, 0.0014018296069760793, 0.001401118196532534, 0.0014004116293073715, 0.0013997098421961803, 0.001399012773304484, 0.0013983203619172013, 0.0013976325484690573, 0.0013969492745159174, 0.001396270482707001, 0.0013955961167579527, 0.0013949261214247295, 0.0013942604424782826, 0.0013935990266799995, 0.0013929418217578848, 0.001392288776383446, 0.001391639840149267, 0.0013909949635472396, 0.001390354097947431, 0.0013897171955775695, 0.0013890842095031196, 0.0013884550936079328, 0.0013878298025754511, 0.0013872082918704432, 0.00138659051772126, 0.0013859764371025882, 0.0013853660077186843, 0.0013847591879870783, 0.0013841559370227248, 0.0013835562146225935, 0.0013829599812506782, 0.0013823671980234158, 0.001381777826695501, 0.001381191829646078, 0.0013806091698653098, 0.0013800298109412992, 0.0013794537170473578, 0.0013788808529296135, 0.0013783111838949398, 0.0013777446757992013, 0.0013771812950358058, 0.00137662100852455, 0.0013760637837007521, 0.0013755095885046656, 0.001374958391371157, 0.0013744101612196493, 0.0013738648674443178, 0.0013733224799045297, 0.0013727829689155248, 0.001372246305239327, 0.0013717124600758782, 0.001371181405054393, 0.0013706531122249235, 0.001370127554050129, 0.0013696047033972464, 0.001369084533530254, 0.0013685670181022215, 0.0013680521311478465, 0.0013675398470761647, 0.001367030140663434, 0.001366522987046188, 0.0013660183617144493, 0.0013655162405051041, 0.0013650165995954277, 0.0013645194154967627, 0.0013640246650483416, 0.0013635323254112502, 0.0013630423740625293, 0.0013625547887894114, 0.0013620695476836862, 0.0013615866291361931, 0.0013611060118314392, 0.001360627674742334, 0.001360151597125044, 0.00135967775851396, 0.0013592061387167754, 0.0013587367178096714, 0.001358269476132609, 0.0013578043942847231, 0.0013573414531198155, 0.0013568806337419443, 0.0013564219175011107, 0.001355965285989036, 0.0013555107210350282, 0.0013550582047019378, 0.001354607719282198, 0.001354293578511335]","[16.0, 1.2970923857320567e-05, 2.8960311953852124e-05, 3.2769494899027064e-05, 5.7143791138833276e-05, 6.078582362438232e-05, 7.782790299202248e-05, 0.00011275475453862487, 0.00011275475453862487, 0.00012758551632946206, 0.00016335573980926502, 0.0001848421070510764, 0.00019662293126943784, 0.0002091546007442082, 0.00023666494453226047, 0.00025174867277288475, 0.0002677937552947131, 0.00030301697413014723, 0.0003223296175768086, 0.00030301697413014723, 0.0004669815774700653, 0.0003879716397899993, 0.00041269882864860955, 0.00041269882864860955, 0.00043900199318724724, 0.0004967444273161115, 0.0005284041983121468, 0.0005620817898299683, 0.0005284041983121468, 0.0004669815774700653, 0.0005979058067056204, 0.0005284041983121468, 0.0005620817898299683, 0.0005979058067056204, 0.0007196685740870995, 0.0006765490411208203, 0.0005979058067056204, 0.0007655363100811292, 0.0007655363100811292, 0.0008143274045223257, 0.0007196685740870995, 0.0007655363100811292, 0.0008662281762778711, 0.0007196685740870995, 0.0008143274045223257, 0.0009214368191597745, 0.0010426344575758478, 0.0009214368191597745, 0.0009801641587688596, 0.0010426344575758478, 0.0008662281762778711, 0.0009801641587688596, 0.0011090862713139026, 0.0009214368191597745, 0.0009214368191597745, 0.0009801641587688596, 0.001179773359952946, 0.001179773359952946, 0.0009214368191597745, 0.0009801641587688596, 0.0010426344575758478, 0.0009801641587688596, 0.0011090862713139026, 0.0009214368191597745, 0.0012549656567344947, 0.001179773359952946, 0.0011090862713139026, 0.0010426344575758478, 0.001179773359952946, 0.001179773359952946, 0.001179773359952946, 0.0013349502989674698, 0.0011090862713139026, 0.0011090862713139026, 0.0014200327245212918, 0.0011090862713139026, 0.0012549656567344947, 0.0012549656567344947, 0.0014200327245212918, 0.001179773359952946, 0.0012549656567344947, 0.0013349502989674698, 0.0012549656567344947, 0.0011090862713139026, 0.0013349502989674698, 0.001510537838203444, 0.0014200327245212918, 0.001179773359952946, 0.0014200327245212918, 0.0013349502989674698, 0.001510537838203444, 0.0017092206072459447, 0.001510537838203444, 0.0014200327245212918, 0.0016068112524755568, 0.0016068112524755568, 0.001510537838203444, 0.0014200327245212918, 0.0017092206072459447, 0.0016068112524755568, 0.0017092206072459447, 0.001510537838203444, 0.0017092206072459447, 0.0017092206072459447, 0.0017092206072459447, 0.001818156973778498, 0.001818156973778498, 0.0016068112524755568, 0.0019340363480790394, 0.0016068112524755568, 0.0021884223603633847, 0.001818156973778498, 0.0016068112524755568, 0.0019340363480790394, 0.002057301239461959, 0.0021884223603633847, 0.0021884223603633847, 0.0021884223603633847, 0.002057301239461959, 0.002057301239461959, 0.002327900423853803, 0.0021884223603633847, 0.0021884223603633847, 0.0019340363480790394, 0.002327900423853803, 0.002057301239461959, 0.002327900423853803, 0.0026340918283780184, 0.002057301239461959, 0.0021884223603633847, 0.002327900423853803, 0.001818156973778498, 0.002057301239461959, 0.002327900423853803, 0.0024762680557142897, 0.0024762680557142897, 0.0024762680557142897, 0.002327900423853803, 0.0024762680557142897, 0.0026340918283780184, 0.0026340918283780184, 0.002327900423853803, 0.0024762680557142897, 0.0026340918283780184, 0.002327900423853803, 0.002801974424504067, 0.002327900423853803, 0.0026340918283780184, 0.0024762680557142897, 0.0026340918283780184, 0.0024762680557142897, 0.002801974424504067, 0.002980556938445577, 0.002801974424504067, 0.002801974424504067, 0.0026340918283780184, 0.0021884223603633847, 0.003170521324400895, 0.003372593000596473, 0.002980556938445577, 0.002801974424504067, 0.0038161940142650993, 0.002801974424504067, 0.003170521324400895, 0.002980556938445577, 0.002801974424504067, 0.0024762680557142897, 0.003372593000596473, 0.003170521324400895, 0.003170521324400895, 0.002980556938445577, 0.003170521324400895, 0.003170521324400895, 0.003170521324400895, 0.002980556938445577, 0.003587543619446129, 0.0024762680557142897, 0.002801974424504067, 0.003372593000596473, 0.003170521324400895, 0.003587543619446129, 0.003587543619446129, 0.003372593000596473, 0.003170521324400895, 0.003372593000596473, 0.003587543619446129, 0.003372593000596473, 0.003587543619446129, 0.003372593000596473, 0.003372593000596473, 0.0045933571373359796, 0.003372593000596473, 0.0038161940142650993, 0.0045933571373359796, 0.0038161940142650993, 0.003587543619446129, 0.004059417333791517, 0.004059417333791517, 0.004318142376485131, 0.003372593000596473, 0.003587543619446129, 0.00552878855536345, 0.003587543619446129, 0.0038161940142650993, 0.0038161940142650993, 0.004318142376485131, 0.0038161940142650993, 0.003587543619446129, 0.004059417333791517, 0.0038161940142650993, 0.0045933571373359796, 0.004059417333791517, 0.0038161940142650993, 0.004059417333791517, 0.004318142376485131, 0.0045933571373359796, 0.004059417333791517, 0.0045933571373359796, 0.004886112580727232, 0.0045933571373359796, 0.004059417333791517, 0.004886112580727232, 0.004318142376485131, 0.0038161940142650993, 0.004886112580727232, 0.0038161940142650993, 0.004059417333791517, 0.0045933571373359796, 0.004059417333791517, 0.006065685163471772, 0.004059417333791517, 0.00519752665375966, 0.004318142376485131, 0.004059417333791517, 0.00519752665375966, 0.0045933571373359796, 0.0045933571373359796, 0.0045933571373359796, 0.00519752665375966, 0.004886112580727232, 0.0045933571373359796, 0.004886112580727232, 0.004886112580727232, 0.004059417333791517, 0.00519752665375966, 0.00519752665375966, 0.004318142376485131, 0.00552878855536345, 0.005881163277499826, 0.0045933571373359796, 0.00519752665375966, 0.00519752665375966, 0.00519752665375966]"
