last_val_loss,dataset,ul2,causal_denoisers,noncausal_masking,causal_divider,s_divider,r_divider,x_divider,randomize_denoiser_settings,randomize_mask_width,no_special_tokens,alternate_denoisers,progressive_tasks,model_scale,depth,width,num_params,num_non_embedding_params,num_heads,lr_mult,linear_value,seed,run_num,max_epochs,max_steps,max_tokens,max_time_seconds,gpu_capacity_scalar,train_loss_causal,train_pplx_causal,train_acc_causal,train_loss_s,train_pplx_s,train_loss_r,train_pplx_r,train_loss_x,train_pplx_x,train_acc_x_causal,train_acc_r_causal,train_acc_s_causal,train_acc_x_masked,train_acc_r_masked,train_acc_s_masked,val_loss_causal,val_pplx_causal,val_acc_causal,val_loss_s,val_pplx_s,val_loss_r,val_pplx_r,val_loss_x,val_pplx_x,grad_norm,cumulative_time,tokens_seen,epoch,batch_size,seq_length,learning_rate,weight_decay
3.1015625,fineweb,true,true,false,1000.0,1000.0,1.0,1000.0,true,true,true,true,false,5.23113258028692,21,1024,240683029,137648149,16,0.9,false,1600,1,1.0,1000000000,1000000000000,1000000000,1.9,"[10.9375, 7.03125, 6.6875, 6.28125, 6.25, 6.15625, 6.0, 5.90625, 5.8125, 5.75, 5.71875, 5.78125, 5.59375, 5.46875, 5.46875, 5.34375, 5.375, 5.28125, 5.34375, 5.25, 5.3125, 5.1875, 5.28125, 5.03125, 5.03125, 5.03125, 4.9375, 5.0625, 5.03125, 5.0625, 4.96875, 4.84375, 4.875, 4.90625, 4.84375, 4.90625, 4.90625, 4.8125, 4.84375, 4.71875, 4.8125, 4.75, 4.84375, 4.75, 4.65625, 4.71875, 4.71875, 4.59375, 4.65625, 4.71875, 4.6875, 4.5625, 4.71875, 4.5625, 4.4375, 4.53125, 4.5, 4.53125, 4.5625, 4.5625, 4.46875, 4.5625, 4.40625, 4.53125, 4.625, 4.5625, 4.4375, 4.5, 4.625, 4.40625, 4.625, 4.53125, 4.46875, 4.46875, 4.46875, 4.4375, 4.4375, 4.46875, 4.3125, 4.34375, 4.5, 4.40625, 4.28125, 4.3125, 4.375, 4.1875, 4.34375, 4.375, 4.25, 4.1875, 4.21875, 4.125, 4.21875, 4.21875, 4.25, 4.25, 4.21875, 4.125, 4.21875, 4.21875, 4.1875, 4.125, 4.21875, 3.984375, 4.0, 4.15625, 4.15625, 4.125, 4.15625, 3.984375, 4.0625, 4.1875, 4.1875, 4.125, 4.03125, 4.0625, 4.03125, 4.0625, 4.03125, 3.90625, 3.96875, 4.0625, 3.984375, 4.0625, 3.984375, 3.984375, 4.09375, 3.875, 4.0, 3.90625, 3.90625, 3.859375, 3.96875, 3.828125, 3.875, 4.0625, 3.828125, 3.890625, 3.921875, 4.0, 3.9375, 3.875, 3.765625, 3.875, 3.890625, 3.875, 3.8125, 3.890625, 3.8125, 3.828125, 3.875, 3.890625, 3.8125, 3.765625, 3.859375, 3.828125, 3.890625, 3.8125, 3.828125, 3.8125, 3.953125, 3.734375, 3.75, 3.875, 3.71875, 3.75, 3.875, 3.84375, 3.734375, 3.65625, 3.796875, 3.734375, 3.796875, 3.75, 3.84375, 3.828125, 3.640625, 3.6875, 3.59375, 3.75, 3.765625, 3.671875, 3.71875, 3.71875, 3.6875, 3.703125, 3.75, 3.703125, 3.640625, 3.578125, 3.671875, 3.75, 3.65625, 3.75, 3.6875, 3.671875, 3.515625, 3.703125, 3.640625, 3.5625, 3.578125, 3.59375, 3.640625, 3.75, 3.734375, 3.578125, 3.65625, 3.65625, 3.671875, 3.625, 3.625, 3.734375, 3.5625, 3.625, 3.671875, 3.65625, 3.65625, 3.5625, 3.703125, 3.65625, 3.640625, 3.484375, 3.578125, 3.640625, 3.59375, 3.59375, 3.546875, 3.609375, 3.53125, 3.5625, 3.609375, 3.59375, 3.625, 3.53125, 3.671875, 3.578125, 3.484375, 3.484375, 3.59375, 3.515625, 3.484375, 3.578125, 3.53125, 3.5625, 3.671875, 3.46875, 3.609375, 3.65625, 3.65625, 3.609375, 3.53125, 3.5625, 3.609375, 3.625, 3.515625, 3.484375, 3.546875, 3.46875, 3.5625, 3.46875, 3.609375, 3.40625, 3.46875, 3.421875, 3.5, 3.5, 3.5, 3.4375, 3.453125, 3.453125, 3.46875, 3.484375, 3.4375, 3.546875, 3.421875, 3.390625, 3.484375, 3.515625, 3.5, 3.453125, 3.53125, 3.5, 3.515625, 3.515625, 3.484375, 3.484375, 3.34375, 3.375, 3.5, 3.578125, 3.53125, 3.484375, 3.5, 3.515625, 3.515625, 3.453125, 3.421875, 3.5, 3.375, 3.46875, 3.5625, 3.484375, 3.40625, 3.40625, 3.46875, 3.421875, 3.4375, 3.421875, 3.34375, 3.515625, 3.375, 3.375, 3.484375, 3.453125, 3.4375, 3.453125, 3.4375, 3.40625, 3.46875, 3.5, 3.390625, 3.421875, 3.40625, 3.375, 3.375, 3.359375, 3.46875, 3.375, 3.421875, 3.34375, 3.484375, 3.390625, 3.40625, 3.421875, 3.390625, 3.46875, 3.3125, 3.40625, 3.40625, 3.421875, 3.25, 3.46875, 3.375, 3.390625, 3.453125, 3.5, 3.40625, 3.390625, 3.359375, 3.328125, 3.375, 3.328125, 3.28125, 3.453125, 3.40625, 3.234375, 3.375, 3.390625, 3.421875, 3.34375, 3.421875, 3.375, 3.40625, 3.25, 3.34375, 3.453125, 3.34375, 3.375, 3.390625, 3.453125, 3.3125, 3.4375, 3.328125, 3.390625, 3.40625, 3.484375, 3.328125, 3.390625, 3.328125, 3.46875, 3.40625, 3.359375, 3.359375, 3.34375, 3.3125, 3.3125, 3.25, 3.34375, 3.421875, 3.34375, 3.359375, 3.3125, 3.359375, 3.375, 3.375, 3.4375, 3.390625, 3.375, 3.3125, 3.46875, 3.171875, 3.40625, 3.328125, 3.265625, 3.3125, 3.421875, 3.265625, 3.3125, 3.265625, 3.203125, 3.375, 3.390625, 3.421875, 3.15625, 3.296875, 3.21875, 3.359375, 3.203125, 3.21875, 3.1875, 3.3125, 3.234375, 3.328125, 3.328125, 3.265625, 3.359375, 3.296875, 3.34375, 3.40625, 3.265625, 3.25, 3.296875, 3.34375, 3.21875, 3.203125, 3.328125, 3.25, 3.328125, 3.15625, 3.3125, 3.390625, 3.34375, 3.28125, 3.375, 3.265625, 3.25, 3.390625, 3.28125, 3.234375, 3.296875, 3.296875, 3.234375, 3.3125, 3.21875, 3.265625, 3.171875, 3.359375, 3.34375, 3.265625, 3.265625, 3.3125, 3.328125, 3.265625, 3.3125, 3.234375, 3.3125, 3.15625, 3.328125, 3.21875, 3.234375, 3.25, 3.25, 3.203125, 3.21875, 3.328125, 3.203125, 3.265625, 3.203125, 3.25, 3.15625, 3.28125, 3.296875, 3.3125, 3.375, 3.328125, 3.203125, 3.171875, 3.375, 3.28125, 3.171875, 3.234375, 3.1875, 3.296875, 3.234375, 3.234375, 3.296875, 3.1875, 3.234375, 3.25, 3.203125, 3.265625, 3.234375, 3.234375, 3.171875, 3.296875, 3.234375, 3.25, 3.25, 3.296875, 3.34375, 3.203125, 3.203125, 3.3125, 3.140625, 3.140625, 3.15625, 3.296875, 3.265625, 3.171875, 3.171875, 3.171875, 3.28125, 3.15625, 3.28125, 3.15625, 3.15625, 3.265625, 3.1875, 3.1875, 3.1875, 3.109375, 3.171875, 3.25, 3.203125, 3.1875, 3.203125, 3.09375, 3.234375, 3.125, 3.203125, 3.203125, 3.21875, 3.109375, 3.21875, 3.125, 3.15625, 3.21875, 3.046875, 3.25, 3.140625, 3.234375, 3.171875, 3.1875, 3.234375, 3.234375, 3.09375, 3.203125, 3.109375, 3.09375, 3.140625, 3.21875, 3.203125, 3.21875, 3.140625, 3.15625, 3.109375, 3.03125, 3.203125, 3.21875, 3.140625, 3.234375, 3.25, 3.171875, 3.03125, 3.15625, 3.140625, 3.203125, 3.140625, 3.046875, 3.078125, 3.0625, 3.25, 3.203125, 3.15625, 3.109375, 3.03125, 3.09375, 3.1875, 3.109375, 3.171875, 3.015625, 3.171875, 3.1875, 3.1875, 3.09375, 3.015625, 3.25, 3.171875, 3.125, 3.1875, 3.140625, 3.109375, 3.265625, 3.125, 3.125, 3.125, 3.109375, 3.125, 3.078125, 3.09375, 3.03125, 3.125, 3.078125, 3.140625, 3.09375, 2.921875, 3.1875, 3.125, 3.15625, 3.0625, 3.09375, 3.046875, 3.0, 3.109375, 3.21875, 3.0625, 3.0625, 3.15625, 3.046875, 3.046875, 3.015625, 3.046875, 3.109375, 3.078125, 2.984375, 3.0625, 3.03125, 3.046875, 3.109375, 3.140625, 3.03125, 3.0, 3.0625, 2.921875, 3.03125, 3.125, 3.0, 2.921875, 3.015625, 3.140625, 2.96875, 3.03125, 3.046875, 3.109375, 3.0625, 3.109375, 3.21875, 3.03125, 3.109375, 3.015625, 3.03125, 2.9375, 3.046875, 3.09375, 3.015625, 3.125, 3.09375, 3.078125, 3.03125, 3.015625, 3.15625, 2.9375, 2.9375, 3.015625, 3.03125, 3.03125, 3.03125, 2.953125, 2.9375, 3.0, 3.046875, 2.953125, 2.953125, 3.046875, 3.015625, 2.984375, 3.0, 2.96875, 3.0625, 3.09375, 3.015625, 3.015625, 2.953125, 3.03125, 2.921875, 3.015625, 3.0, 3.140625, 3.0625, 2.953125, 2.90625, 3.0, 3.046875, 3.0, 2.984375, 3.109375, 2.984375, 3.0625, 3.0]","[56320.0, 1136.0, 804.0, 536.0, 520.0, 472.0, 404.0, 368.0, 334.0, 314.0, 304.0, 324.0, 270.0, 237.0, 237.0, 209.0, 216.0, 197.0, 209.0, 191.0, 203.0, 179.0, 197.0, 153.0, 153.0, 153.0, 140.0, 158.0, 153.0, 158.0, 144.0, 127.0, 131.0, 135.0, 127.0, 135.0, 135.0, 123.0, 127.0, 112.0, 123.0, 115.5, 127.0, 115.5, 105.5, 112.0, 112.0, 99.0, 105.5, 112.0, 108.5, 96.0, 112.0, 96.0, 84.5, 93.0, 90.0, 93.0, 96.0, 96.0, 87.5, 96.0, 82.0, 93.0, 102.0, 96.0, 84.5, 90.0, 102.0, 82.0, 102.0, 93.0, 87.5, 87.5, 87.5, 84.5, 84.5, 87.5, 74.5, 77.0, 90.0, 82.0, 72.5, 74.5, 79.5, 66.0, 77.0, 79.5, 70.0, 66.0, 68.0, 62.0, 68.0, 68.0, 70.0, 70.0, 68.0, 62.0, 68.0, 68.0, 66.0, 62.0, 68.0, 53.75, 54.75, 64.0, 64.0, 62.0, 64.0, 53.75, 58.25, 66.0, 66.0, 62.0, 56.25, 58.25, 56.25, 58.25, 56.25, 49.75, 53.0, 58.25, 53.75, 58.25, 53.75, 53.75, 60.0, 48.25, 54.75, 49.75, 49.75, 47.5, 53.0, 46.0, 48.25, 58.25, 46.0, 49.0, 50.5, 54.75, 51.25, 48.25, 43.25, 48.25, 49.0, 48.25, 45.25, 49.0, 45.25, 46.0, 48.25, 49.0, 45.25, 43.25, 47.5, 46.0, 49.0, 45.25, 46.0, 45.25, 52.25, 42.0, 42.5, 48.25, 41.25, 42.5, 48.25, 46.75, 42.0, 38.75, 44.5, 42.0, 44.5, 42.5, 46.75, 46.0, 38.25, 40.0, 36.5, 42.5, 43.25, 39.25, 41.25, 41.25, 40.0, 40.5, 42.5, 40.5, 38.25, 35.75, 39.25, 42.5, 38.75, 42.5, 40.0, 39.25, 33.75, 40.5, 38.25, 35.25, 35.75, 36.5, 38.25, 42.5, 42.0, 35.75, 38.75, 38.75, 39.25, 37.5, 37.5, 42.0, 35.25, 37.5, 39.25, 38.75, 38.75, 35.25, 40.5, 38.75, 38.25, 32.5, 35.75, 38.25, 36.5, 36.5, 34.75, 37.0, 34.25, 35.25, 37.0, 36.5, 37.5, 34.25, 39.25, 35.75, 32.5, 32.5, 36.5, 33.75, 32.5, 35.75, 34.25, 35.25, 39.25, 32.0, 37.0, 38.75, 38.75, 37.0, 34.25, 35.25, 37.0, 37.5, 33.75, 32.5, 34.75, 32.0, 35.25, 32.0, 37.0, 30.125, 32.0, 30.625, 33.25, 33.25, 33.25, 31.125, 31.625, 31.625, 32.0, 32.5, 31.125, 34.75, 30.625, 29.75, 32.5, 33.75, 33.25, 31.625, 34.25, 33.25, 33.75, 33.75, 32.5, 32.5, 28.375, 29.25, 33.25, 35.75, 34.25, 32.5, 33.25, 33.75, 33.75, 31.625, 30.625, 33.25, 29.25, 32.0, 35.25, 32.5, 30.125, 30.125, 32.0, 30.625, 31.125, 30.625, 28.375, 33.75, 29.25, 29.25, 32.5, 31.625, 31.125, 31.625, 31.125, 30.125, 32.0, 33.25, 29.75, 30.625, 30.125, 29.25, 29.25, 28.75, 32.0, 29.25, 30.625, 28.375, 32.5, 29.75, 30.125, 30.625, 29.75, 32.0, 27.5, 30.125, 30.125, 30.625, 25.75, 32.0, 29.25, 29.75, 31.625, 33.25, 30.125, 29.75, 28.75, 27.875, 29.25, 27.875, 26.625, 31.625, 30.125, 25.375, 29.25, 29.75, 30.625, 28.375, 30.625, 29.25, 30.125, 25.75, 28.375, 31.625, 28.375, 29.25, 29.75, 31.625, 27.5, 31.125, 27.875, 29.75, 30.125, 32.5, 27.875, 29.75, 27.875, 32.0, 30.125, 28.75, 28.75, 28.375, 27.5, 27.5, 25.75, 28.375, 30.625, 28.375, 28.75, 27.5, 28.75, 29.25, 29.25, 31.125, 29.75, 29.25, 27.5, 32.0, 23.875, 30.125, 27.875, 26.25, 27.5, 30.625, 26.25, 27.5, 26.25, 24.625, 29.25, 29.75, 30.625, 23.5, 27.0, 25.0, 28.75, 24.625, 25.0, 24.25, 27.5, 25.375, 27.875, 27.875, 26.25, 28.75, 27.0, 28.375, 30.125, 26.25, 25.75, 27.0, 28.375, 25.0, 24.625, 27.875, 25.75, 27.875, 23.5, 27.5, 29.75, 28.375, 26.625, 29.25, 26.25, 25.75, 29.75, 26.625, 25.375, 27.0, 27.0, 25.375, 27.5, 25.0, 26.25, 23.875, 28.75, 28.375, 26.25, 26.25, 27.5, 27.875, 26.25, 27.5, 25.375, 27.5, 23.5, 27.875, 25.0, 25.375, 25.75, 25.75, 24.625, 25.0, 27.875, 24.625, 26.25, 24.625, 25.75, 23.5, 26.625, 27.0, 27.5, 29.25, 27.875, 24.625, 23.875, 29.25, 26.625, 23.875, 25.375, 24.25, 27.0, 25.375, 25.375, 27.0, 24.25, 25.375, 25.75, 24.625, 26.25, 25.375, 25.375, 23.875, 27.0, 25.375, 25.75, 25.75, 27.0, 28.375, 24.625, 24.625, 27.5, 23.125, 23.125, 23.5, 27.0, 26.25, 23.875, 23.875, 23.875, 26.625, 23.5, 26.625, 23.5, 23.5, 26.25, 24.25, 24.25, 24.25, 22.375, 23.875, 25.75, 24.625, 24.25, 24.625, 22.125, 25.375, 22.75, 24.625, 24.625, 25.0, 22.375, 25.0, 22.75, 23.5, 25.0, 21.0, 25.75, 23.125, 25.375, 23.875, 24.25, 25.375, 25.375, 22.125, 24.625, 22.375, 22.125, 23.125, 25.0, 24.625, 25.0, 23.125, 23.5, 22.375, 20.75, 24.625, 25.0, 23.125, 25.375, 25.75, 23.875, 20.75, 23.5, 23.125, 24.625, 23.125, 21.0, 21.75, 21.375, 25.75, 24.625, 23.5, 22.375, 20.75, 22.125, 24.25, 22.375, 23.875, 20.375, 23.875, 24.25, 24.25, 22.125, 20.375, 25.75, 23.875, 22.75, 24.25, 23.125, 22.375, 26.25, 22.75, 22.75, 22.75, 22.375, 22.75, 21.75, 22.125, 20.75, 22.75, 21.75, 23.125, 22.125, 18.625, 24.25, 22.75, 23.5, 21.375, 22.125, 21.0, 20.125, 22.375, 25.0, 21.375, 21.375, 23.5, 21.0, 21.0, 20.375, 21.0, 22.375, 21.75, 19.75, 21.375, 20.75, 21.0, 22.375, 23.125, 20.75, 20.125, 21.375, 18.625, 20.75, 22.75, 20.125, 18.625, 20.375, 23.125, 19.5, 20.75, 21.0, 22.375, 21.375, 22.375, 25.0, 20.75, 22.375, 20.375, 20.75, 18.875, 21.0, 22.125, 20.375, 22.75, 22.125, 21.75, 20.75, 20.375, 23.5, 18.875, 18.875, 20.375, 20.75, 20.75, 20.75, 19.125, 18.875, 20.125, 21.0, 19.125, 19.125, 21.0, 20.375, 19.75, 20.125, 19.5, 21.375, 22.125, 20.375, 20.375, 19.125, 20.75, 18.625, 20.375, 20.125, 23.125, 21.375, 19.125, 18.25, 20.125, 21.0, 20.125, 19.75, 22.375, 19.75, 21.375, 20.125]","[1.6551906810491346e-05, 0.09209480881690979, 0.09254170954227448, 0.09709348529577255, 0.10280389338731766, 0.0948755294084549, 0.1054190918803215, 0.12342756986618042, 0.12605932354927063, 0.13016419112682343, 0.11491988599300385, 0.11056673526763916, 0.11784957349300385, 0.14347192645072937, 0.13531184196472168, 0.13387182354927063, 0.14095604419708252, 0.12291446328163147, 0.14386917650699615, 0.14060844480991364, 0.1297338455915451, 0.132713183760643, 0.14388573169708252, 0.12615863978862762, 0.16666114330291748, 0.161033496260643, 0.14928165078163147, 0.13928429782390594, 0.14333951473236084, 0.14669954776763916, 0.1486361175775528, 0.15457825362682343, 0.163963183760643, 0.14469677209854126, 0.14507746696472168, 0.13782772421836853, 0.15992452204227448, 0.16076867282390594, 0.14603747427463531, 0.14734508097171783, 0.15358513593673706, 0.16234110295772552, 0.14943061769008636, 0.14396849274635315, 0.14158500730991364, 0.15548861026763916, 0.17195776104927063, 0.15684586763381958, 0.15426376461982727, 0.16748873889446259, 0.18106131255626678, 0.14280985295772552, 0.14327330887317657, 0.19380627572536469, 0.18367651104927063, 0.16369836032390594, 0.17048464715480804, 0.15967623889446259, 0.16363215446472168, 0.14621955156326294, 0.17771781980991364, 0.17818127572536469, 0.15673001110553741, 0.17586401104927063, 0.1627880036830902, 0.15853416919708252, 0.15760725736618042, 0.17136189341545105, 0.16450940072536469, 0.1578555405139923, 0.16331766545772552, 0.1562996506690979, 0.16823357343673706, 0.17263638973236084, 0.14602091908454895, 0.1487850844860077, 0.19498145580291748, 0.17493709921836853, 0.17108051478862762, 0.2146947830915451, 0.17199085652828217, 0.16765426099300385, 0.18892346322536469, 0.1906779706478119, 0.18493445217609406, 0.1725536286830902, 0.15926244854927063, 0.171775683760643, 0.1787605881690979, 0.19259798526763916, 0.19792769849300385, 0.1887248456478119, 0.18768207728862762, 0.19575940072536469, 0.1600072830915451, 0.18308064341545105, 0.17096464335918427, 0.20105601847171783, 0.19100899994373322, 0.20749470591545105, 0.1972159743309021, 0.18215373158454895, 0.16717426478862762, 0.19758011400699615, 0.16960738599300385, 0.1731991469860077, 0.20103946328163147, 0.17283500730991364, 0.16682666540145874, 0.18887381255626678, 0.18111096322536469, 0.17457295954227448, 0.19491524994373322, 0.19675251841545105, 0.19109176099300385, 0.22010725736618042, 0.20032772421836853, 0.20357190072536469, 0.1920848786830902, 0.2097623199224472, 0.20764367282390594, 0.19676907360553741, 0.1867220550775528, 0.22537076473236084, 0.19456766545772552, 0.180763378739357, 0.19014830887317657, 0.212890625, 0.176857128739357, 0.20021186769008636, 0.2147940993309021, 0.21040783822536469, 0.1868213713169098, 0.19767943024635315, 0.20549193024635315, 0.19513042271137238, 0.19410420954227448, 0.22556938230991364, 0.22134864330291748, 0.1946835219860077, 0.2102588713169098, 0.20787540078163147, 0.22067001461982727, 0.18885725736618042, 0.18802966177463531, 0.21244372427463531, 0.1746060699224472, 0.2107885330915451, 0.1809123456478119, 0.216896191239357, 0.21534030139446259, 0.22108381986618042, 0.21505892276763916, 0.21380098164081573, 0.2057071030139923, 0.19806011021137238, 0.19299523532390594, 0.19435249269008636, 0.244239941239357, 0.19963255524635315, 0.21959415078163147, 0.22427833080291748, 0.22262313961982727, 0.1804654449224472, 0.23877780139446259, 0.20549193024635315, 0.2099609375, 0.19895392656326294, 0.20213188230991364, 0.20716366171836853, 0.19748079776763916, 0.20509468019008636, 0.2015194594860077, 0.22492386400699615, 0.2145954668521881, 0.20069186389446259, 0.20175118744373322, 0.23450741171836853, 0.20736229419708252, 0.19645458459854126, 0.185646191239357, 0.2450675368309021, 0.2038036286830902, 0.2041512131690979, 0.21535685658454895, 0.22613215446472168, 0.19216763973236084, 0.22115002572536469, 0.19339248538017273, 0.21673066914081573, 0.24625927209854126, 0.20100635290145874, 0.20881885290145874, 0.22647973895072937, 0.20067532360553741, 0.20560778677463531, 0.21072232723236084, 0.2298397719860077, 0.20236361026763916, 0.21106991171836853, 0.21388374269008636, 0.22995564341545105, 0.2067829668521881, 0.22381488978862762, 0.21878311038017273, 0.23708951473236084, 0.20608779788017273, 0.22191141545772552, 0.21783964335918427, 0.23516948521137238, 0.18768207728862762, 0.19652079045772552, 0.22777079045772552, 0.220603808760643, 0.21340373158454895, 0.21095405519008636, 0.22308659553527832, 0.2278866469860077, 0.22906184196472168, 0.18879105150699615, 0.21585342288017273, 0.21204647421836853, 0.2213321030139923, 0.21722722053527832, 0.24278336763381958, 0.2442895919084549, 0.2246590256690979, 0.23596398532390594, 0.23773503303527832, 0.22234176099300385, 0.2199748456478119, 0.23230601847171783, 0.22566869854927063, 0.21656514704227448, 0.202049121260643, 0.20148636400699615, 0.23005495965480804, 0.20876920223236084, 0.2302701324224472, 0.22111693024635315, 0.23872815072536469, 0.17483779788017273, 0.23166048526763916, 0.2209017425775528, 0.22926045954227448, 0.214943066239357, 0.23917505145072937, 0.23536811769008636, 0.21868379414081573, 0.2031746506690979, 0.2218286544084549, 0.21795551478862762, 0.19031383097171783, 0.20247948169708252, 0.21944518387317657, 0.23495431244373322, 0.18793034553527832, 0.2291446030139923, 0.2314949631690979, 0.20067532360553741, 0.2052270919084549, 0.24139301478862762, 0.22209349274635315, 0.21618445217609406, 0.21385063230991364, 0.20721332728862762, 0.20310844480991364, 0.24054886400699615, 0.23296809196472168, 0.24069783091545105, 0.24841101467609406, 0.22854873538017273, 0.21209613978862762, 0.1995166838169098, 0.23809917271137238, 0.25003311038017273, 0.2447696030139923, 0.20574019849300385, 0.22547008097171783, 0.223533496260643, 0.23108117282390594, 0.2186010330915451, 0.21868379414081573, 0.22595007717609406, 0.2515227794647217, 0.2100105881690979, 0.21189750730991364, 0.20716366171836853, 0.22335143387317657, 0.208984375, 0.24347855150699615, 0.22156383097171783, 0.2115664780139923, 0.23521915078163147, 0.2107885330915451, 0.22434455156326294, 0.1932104080915451, 0.2097126543521881, 0.2346232831478119, 0.23258739709854126, 0.2034229338169098, 0.24347855150699615, 0.24627582728862762, 0.23680813610553741, 0.2473185956478119, 0.25582626461982727, 0.23995299637317657, 0.2244604080915451, 0.23141220211982727, 0.2256355881690979, 0.20456501841545105, 0.2504469156265259, 0.19710010290145874, 0.23430879414081573, 0.2263142168521881, 0.24104541540145874, 0.22409626841545105, 0.23912540078163147, 0.24665652215480804, 0.20936506986618042, 0.2296908050775528, 0.23591433465480804, 0.23463983833789825, 0.22282177209854126, 0.22379833459854126, 0.2617684006690979, 0.19882149994373322, 0.21913069486618042, 0.200095996260643, 0.22487421333789825, 0.22652938961982727, 0.22174589335918427, 0.20845471322536469, 0.27059057354927063, 0.22649629414081573, 0.23230601847171783, 0.26153668761253357, 0.21573755145072937, 0.2272907793521881, 0.23814883828163147, 0.24968551099300385, 0.22884666919708252, 0.24849377572536469, 0.23048530519008636, 0.27517545223236084, 0.21545617282390594, 0.22623145580291748, 0.2758706212043762, 0.2230038344860077, 0.25509798526763916, 0.22657905519008636, 0.2132382094860077, 0.26060977578163147, 0.21921345591545105, 0.24688823521137238, 0.2365267425775528, 0.21447961032390594, 0.24174059927463531, 0.22014036774635315, 0.26173529028892517, 0.2238810956478119, 0.21803827583789825, 0.21578720211982727, 0.2575145661830902, 0.21929621696472168, 0.2504965662956238, 0.24728548526763916, 0.2126920074224472, 0.23121358454227448, 0.22191141545772552, 0.2335474044084549, 0.24862618744373322, 0.24751721322536469, 0.23215705156326294, 0.228614941239357, 0.23702330887317657, 0.22028933465480804, 0.21734309196472168, 0.25417107343673706, 0.2389598786830902, 0.2604607939720154, 0.2594345808029175, 0.24612686038017273, 0.24031713604927063, 0.24122749269008636, 0.2555614411830902, 0.21984241902828217, 0.24293233454227448, 0.23088255524635315, 0.21419823169708252, 0.2034725844860077, 0.23742054402828217, 0.2719147205352783, 0.22068656980991364, 0.2352025955915451, 0.22009070217609406, 0.209861621260643, 0.23551708459854126, 0.21434719860553741, 0.18948623538017273, 0.24278336763381958, 0.22326867282390594, 0.22916114330291748, 0.2380329668521881, 0.230568066239357, 0.23419292271137238, 0.25470075011253357, 0.22818458080291748, 0.24210473895072937, 0.24569649994373322, 0.23321636021137238, 0.26666778326034546, 0.21255958080291748, 0.22987288236618042, 0.25910353660583496, 0.23957230150699615, 0.24581237137317657, 0.2534759044647217, 0.24533236026763916, 0.24763308465480804, 0.20719677209854126, 0.2659725844860077, 0.2553628087043762, 0.2514565587043762, 0.24518339335918427, 0.24261784553527832, 0.25481659173965454, 0.23507018387317657, 0.24529926478862762, 0.2189982831478119, 0.24397510290145874, 0.2400357574224472, 0.2569849193096161, 0.21553893387317657, 0.24109508097171783, 0.22287142276763916, 0.2643670439720154, 0.21856792271137238, 0.22904528677463531, 0.22522179782390594, 0.2198755294084549, 0.27219611406326294, 0.22500662505626678, 0.22500662505626678, 0.2405819594860077, 0.2593352794647217, 0.20941472053527832, 0.216796875, 0.22012381255626678, 0.21941207349300385, 0.25475040078163147, 0.25393936038017273, 0.27712857723236084, 0.23103152215480804, 0.26320841908454895, 0.2438426911830902, 0.22604939341545105, 0.2190975844860077, 0.225685253739357, 0.25739869475364685, 0.23773503303527832, 0.27009400725364685, 0.2332494705915451, 0.23346464335918427, 0.23948954045772552, 0.23015426099300385, 0.2728416323661804, 0.23566605150699615, 0.251754492521286, 0.24645788967609406, 0.23917505145072937, 0.24534891545772552, 0.23113082349300385, 0.24268405139446259, 0.24375993013381958, 0.2467227280139923, 0.24450476467609406, 0.22171279788017273, 0.22942598164081573, 0.2858348786830902, 0.24015161395072937, 0.21163268387317657, 0.2535586655139923, 0.2428164780139923, 0.23588122427463531, 0.23651020228862762, 0.25299590826034546, 0.23215705156326294, 0.23070047795772552, 0.23108117282390594, 0.26911744475364685, 0.25609108805656433, 0.243263378739357, 0.21623411774635315, 0.22535420954227448, 0.2504303455352783, 0.21560513973236084, 0.2588387131690979, 0.24205508828163147, 0.24773238599300385, 0.23233911395072937, 0.2604607939720154, 0.2599146068096161, 0.23372948169708252, 0.24981792271137238, 0.24544823169708252, 0.22282177209854126, 0.23978747427463531, 0.23382878303527832, 0.25681939721107483, 0.2433626800775528, 0.24563029408454895, 0.24632547795772552, 0.217872753739357, 0.2676277756690979, 0.28336864709854126, 0.23737089335918427, 0.25662076473236084, 0.2593352794647217, 0.24894067645072937, 0.2797272205352783, 0.24084679782390594, 0.2536083161830902, 0.25105932354927063, 0.2567862868309021, 0.26272842288017273, 0.21638308465480804, 0.268753319978714, 0.2215307205915451, 0.24951998889446259, 0.2760196030139923, 0.24493511021137238, 0.24314750730991364, 0.25153931975364685, 0.2480965256690979, 0.2600635588169098, 0.23866194486618042, 0.21873344480991364, 0.23775158822536469, 0.26012977957725525, 0.23141220211982727, 0.24771583080291748, 0.2709381580352783, 0.23814883828163147, 0.2739174962043762, 0.2605932354927063, 0.22063691914081573, 0.2564055919647217, 0.22330176830291748, 0.2702595293521881, 0.20330707728862762, 0.25379037857055664, 0.23743709921836853, 0.23147842288017273, 0.23644398152828217, 0.23468948900699615, 0.24182336032390594, 0.2753409743309021, 0.2645491361618042, 0.2451668381690979, 0.22179554402828217, 0.23556673526763916, 0.22859838604927063, 0.25105932354927063, 0.24195577204227448, 0.2653436064720154, 0.25475040078163147, 0.24811308085918427, 0.25461798906326294, 0.24177370965480804, 0.2806706726551056, 0.23526880145072937, 0.22849906980991364, 0.25441935658454895, 0.24812963604927063, 0.23811572790145874, 0.24114473164081573, 0.2972556948661804, 0.246970996260643, 0.24046610295772552, 0.2434619963169098, 0.24844412505626678, 0.26989540457725525, 0.2392081618309021, 0.27239471673965454, 0.24831171333789825, 0.25388970971107483, 0.25724974274635315, 0.22361625730991364, 0.2199748456478119, 0.24758341908454895, 0.23548397421836853, 0.2564387023448944, 0.2177734375, 0.24864274263381958, 0.25018206238746643, 0.2580938935279846, 0.2356991469860077, 0.24142611026763916, 0.2415088713169098, 0.2493213713169098, 0.26554223895072937, 0.22416247427463531, 0.24513374269008636, 0.2864307463169098, 0.25597524642944336, 0.24303165078163147, 0.2515062093734741, 0.24988414347171783, 0.23180945217609406, 0.24195577204227448, 0.25802767276763916, 0.24596133828163147, 0.23985368013381958, 0.2395060956478119, 0.28404727578163147, 0.24903999269008636, 0.23899298906326294, 0.25700145959854126, 0.2498510330915451, 0.23038598895072937, 0.2680746912956238, 0.2615697979927063, 0.24745100736618042, 0.26238083839416504, 0.25632283091545105, 0.24596133828163147, 0.25562766194343567, 0.2669987976551056, 0.24020126461982727, 0.2815313935279846, 0.2543034851551056, 0.26769399642944336, 0.25011587142944336, 0.27037540078163147, 0.25289657711982727, 0.2647477388381958, 0.24162474274635315, 0.21826998889446259, 0.26486361026763916, 0.2625960111618042, 0.26233115792274475, 0.2424357831478119, 0.23907573521137238, 0.25787872076034546, 0.2462923675775528, 0.24771583080291748, 0.2473185956478119, 0.25470075011253357, 0.25084415078163147, 0.26976296305656433, 0.24680548906326294, 0.2565545439720154, 0.2602952718734741, 0.2553131580352783, 0.2647477388381958, 0.2364770919084549, 0.25001654028892517, 0.26916709542274475, 0.25471729040145874, 0.25529661774635315, 0.27160024642944336, 0.26574087142944336, 0.23674193024635315, 0.28204450011253357, 0.2592194080352783, 0.262893944978714, 0.24241922795772552, 0.2578621506690979, 0.2554290294647217, 0.25412142276763916, 0.2860831618309021, 0.25768008828163147, 0.27649959921836853, 0.2592856287956238, 0.2508276104927063, 0.2411612868309021, 0.2962956726551056, 0.25852423906326294, 0.28216034173965454, 0.2762678861618042, 0.2730568051338196, 0.2591862976551056, 0.2700278162956238, 0.2971563935279846, 0.26570776104927063, 0.19299523532390594, 0.27272576093673706, 0.25662076473236084, 0.2816969156265259, 0.26588982343673706, 0.2591201066970825, 0.26052701473236084, 0.2643008530139923, 0.26488015055656433, 0.27068987488746643, 0.27419888973236084, 0.24271716177463531, 0.25377383828163147, 0.25506487488746643, 0.25402212142944336, 0.25021517276763916, 0.26453256607055664, 0.2575145661830902, 0.29695776104927063, 0.2692333161830902, 0.23199152946472168, 0.2706567943096161, 0.24683858454227448]","[10.9375, 7.21875, 6.84375, 6.4375, 6.46875, 6.5625, 6.46875, 6.4375, 6.53125, 6.375, 6.3125, 6.28125, 6.3125, 6.0625, 6.09375, 5.90625, 6.0, 5.6875, 5.875, 5.8125, 5.78125, 5.625, 5.8125, 5.53125, 5.75, 5.6875, 5.4375, 5.5625, 5.46875, 5.65625, 5.59375, 5.4375, 5.5625, 5.5, 5.3125, 5.46875, 5.59375, 5.4375, 5.53125, 5.3125, 5.46875, 5.375, 5.53125, 5.3125, 5.1875, 5.3125, 5.40625, 5.1875, 5.1875, 5.34375, 5.40625, 5.03125, 5.21875, 5.3125, 5.0625, 5.125, 5.15625, 5.0, 5.15625, 5.0625, 5.15625, 5.125, 4.84375, 5.15625, 5.125, 5.15625, 5.09375, 4.96875, 5.25, 4.78125, 5.25, 5.0, 4.8125, 4.875, 4.8125, 4.84375, 4.875, 4.96875, 4.875, 5.03125, 5.03125, 4.90625, 4.90625, 4.9375, 5.03125, 4.6875, 4.875, 4.96875, 4.78125, 4.875, 4.84375, 4.75, 4.8125, 4.84375, 4.6875, 4.84375, 4.65625, 4.75, 4.8125, 4.9375, 4.875, 4.625, 4.75, 4.65625, 4.5, 4.8125, 4.84375, 4.65625, 4.75, 4.59375, 4.59375, 4.75, 4.6875, 4.59375, 4.46875, 4.625, 4.53125, 4.625, 4.5625, 4.5625, 4.5, 4.78125, 4.5625, 4.8125, 4.46875, 4.4375, 4.6875, 4.5, 4.5625, 4.53125, 4.625, 4.53125, 4.5625, 4.46875, 4.5, 4.6875, 4.34375, 4.65625, 4.78125, 4.65625, 4.5625, 4.5, 4.4375, 4.4375, 4.4375, 4.53125, 4.34375, 4.5, 4.375, 4.46875, 4.4375, 4.53125, 4.4375, 4.3125, 4.5, 4.3125, 4.53125, 4.3125, 4.59375, 4.28125, 4.65625, 4.40625, 4.40625, 4.46875, 4.34375, 4.375, 4.53125, 4.40625, 4.34375, 4.3125, 4.21875, 4.28125, 4.4375, 4.53125, 4.53125, 4.53125, 4.21875, 4.375, 4.1875, 4.28125, 4.3125, 4.28125, 4.1875, 4.21875, 4.28125, 4.28125, 4.25, 4.40625, 4.25, 4.0, 4.3125, 4.28125, 4.125, 4.34375, 4.1875, 4.125, 4.15625, 4.375, 4.09375, 4.15625, 4.125, 4.15625, 4.09375, 4.4375, 4.25, 4.0625, 4.125, 4.28125, 4.28125, 4.375, 4.0625, 4.15625, 4.1875, 4.15625, 4.25, 4.25, 4.25, 4.03125, 4.40625, 4.1875, 4.28125, 4.125, 4.28125, 4.3125, 4.28125, 4.15625, 4.25, 4.25, 4.28125, 4.15625, 4.21875, 4.3125, 4.25, 4.15625, 4.28125, 4.09375, 4.0625, 4.09375, 4.3125, 4.15625, 4.09375, 4.0625, 4.125, 4.25, 4.53125, 4.03125, 4.4375, 4.375, 4.3125, 4.15625, 4.3125, 4.15625, 4.125, 4.25, 4.15625, 4.15625, 4.03125, 4.28125, 4.34375, 3.953125, 4.3125, 4.09375, 4.09375, 4.125, 4.0625, 4.09375, 4.1875, 4.0625, 4.125, 4.15625, 4.28125, 4.21875, 4.125, 3.90625, 4.125, 4.15625, 4.1875, 4.15625, 4.1875, 4.1875, 4.3125, 4.125, 4.21875, 4.15625, 4.21875, 4.0625, 3.84375, 3.90625, 4.15625, 4.1875, 4.34375, 4.15625, 4.125, 4.25, 4.15625, 4.21875, 3.828125, 4.21875, 3.984375, 4.25, 4.15625, 4.34375, 4.1875, 4.1875, 4.25, 4.15625, 4.21875, 4.03125, 3.921875, 4.21875, 3.875, 4.0625, 4.125, 4.03125, 4.0625, 4.21875, 4.125, 4.21875, 4.1875, 4.1875, 4.0625, 3.953125, 3.90625, 3.78125, 3.859375, 3.890625, 3.890625, 3.734375, 3.78125, 3.734375, 3.9375, 3.765625, 3.859375, 4.03125, 3.859375, 4.0625, 3.921875, 3.875, 3.875, 3.828125, 3.765625, 3.96875, 3.828125, 3.84375, 4.0625, 3.953125, 3.890625, 4.0, 3.890625, 3.859375, 3.828125, 3.75, 3.90625, 3.90625, 3.96875, 3.734375, 3.84375, 3.96875, 3.875, 3.875, 3.859375, 3.859375, 3.890625, 3.796875, 3.78125, 3.984375, 3.84375, 3.796875, 3.859375, 3.96875, 3.84375, 4.0, 3.78125, 3.890625, 3.9375, 4.0, 3.796875, 3.78125, 3.828125, 3.96875, 3.984375, 3.890625, 3.921875, 3.828125, 3.796875, 3.828125, 3.828125, 3.90625, 3.96875, 3.796875, 3.796875, 3.875, 4.0, 3.875, 4.03125, 3.96875, 3.796875, 3.953125, 3.765625, 3.96875, 3.765625, 3.84375, 3.921875, 3.84375, 3.9375, 4.0, 3.84375, 3.828125, 3.8125, 3.734375, 3.953125, 4.09375, 3.984375, 3.640625, 3.921875, 3.703125, 4.03125, 3.828125, 3.8125, 3.75, 3.859375, 3.8125, 3.9375, 4.03125, 3.96875, 4.0625, 4.03125, 4.0, 4.21875, 3.84375, 3.890625, 3.953125, 4.0625, 3.8125, 3.921875, 3.859375, 3.96875, 4.0, 3.71875, 4.0625, 4.0625, 4.03125, 3.8125, 3.984375, 3.890625, 3.953125, 3.828125, 3.703125, 3.71875, 4.0625, 3.84375, 4.0, 4.09375, 3.765625, 4.09375, 3.8125, 3.953125, 3.921875, 3.890625, 3.96875, 3.953125, 4.09375, 3.875, 3.90625, 3.71875, 4.0625, 3.828125, 3.96875, 3.9375, 3.875, 3.71875, 3.9375, 3.765625, 3.84375, 3.953125, 3.953125, 3.921875, 3.875, 3.75, 3.953125, 3.890625, 3.9375, 3.96875, 4.0625, 3.90625, 3.875, 3.859375, 4.03125, 3.953125, 3.859375, 3.890625, 3.765625, 4.0625, 3.671875, 3.828125, 3.96875, 3.703125, 3.9375, 4.03125, 3.90625, 3.828125, 3.921875, 3.96875, 3.875, 3.96875, 3.90625, 3.796875, 3.921875, 3.96875, 4.15625, 4.03125, 3.84375, 4.03125, 3.609375, 3.875, 4.09375, 4.125, 4.03125, 3.78125, 3.90625, 3.875, 3.84375, 3.6875, 3.921875, 3.71875, 3.703125, 3.734375, 3.796875, 3.71875, 3.765625, 3.703125, 3.65625, 3.875, 3.8125, 3.703125, 3.890625, 3.53125, 3.75, 3.6875, 3.9375, 3.8125, 3.90625, 3.796875, 3.796875, 3.84375, 3.84375, 3.84375, 3.59375, 3.875, 3.71875, 3.796875, 3.765625, 3.734375, 3.859375, 3.84375, 3.625, 3.890625, 3.8125, 3.78125, 3.78125, 3.84375, 3.859375, 3.765625, 3.75, 3.84375, 3.734375, 3.703125, 3.953125, 3.796875, 3.6875, 4.0625, 4.0, 3.78125, 3.625, 3.75, 3.6875, 3.921875, 4.09375, 3.671875, 3.625, 3.6875, 3.828125, 3.96875, 3.84375, 3.71875, 3.6875, 3.765625, 3.984375, 3.65625, 3.734375, 3.640625, 3.796875, 3.875, 3.625, 3.859375, 3.65625, 4.03125, 3.84375, 3.765625, 3.890625, 3.796875, 3.8125, 3.890625, 3.75, 3.96875, 3.609375, 3.53125, 3.578125, 3.578125, 3.59375, 3.5, 3.609375, 3.5, 3.625, 3.546875, 3.453125, 3.703125, 3.546875, 3.65625, 3.546875, 3.453125, 3.5, 3.515625, 3.5625, 3.78125, 3.53125, 3.578125, 3.625, 3.578125, 3.609375, 3.546875, 3.546875, 3.625, 3.65625, 3.53125, 3.546875, 3.625, 3.5, 3.546875, 3.703125, 3.609375, 3.5, 3.546875, 3.3125, 3.5, 3.59375, 3.4375, 3.421875, 3.515625, 3.65625, 3.546875, 3.5625, 3.578125, 3.59375, 3.640625, 3.609375, 3.78125, 3.453125, 3.640625, 3.578125, 3.59375, 3.484375, 3.625, 3.5625, 3.65625, 3.6875, 3.578125, 3.53125, 3.625, 3.484375, 3.625, 3.5, 3.46875, 3.515625, 3.625, 3.515625, 3.4375, 3.484375, 3.375, 3.59375, 3.671875, 3.421875, 3.453125, 3.6875, 3.609375, 3.578125, 3.359375, 3.546875, 3.625, 3.703125, 3.5, 3.5625, 3.484375, 3.59375, 3.484375, 3.515625, 3.5625, 3.625, 3.53125, 3.4375, 3.328125, 3.609375, 3.546875, 3.578125, 3.609375, 3.6875, 3.5, 3.578125, 3.46875]","[56320.0, 1368.0, 940.0, 624.0, 644.0, 708.0, 644.0, 624.0, 688.0, 588.0, 552.0, 536.0, 552.0, 430.0, 444.0, 368.0, 404.0, 296.0, 356.0, 334.0, 324.0, 278.0, 334.0, 253.0, 314.0, 296.0, 230.0, 260.0, 237.0, 286.0, 270.0, 230.0, 260.0, 245.0, 203.0, 237.0, 270.0, 230.0, 253.0, 203.0, 237.0, 216.0, 253.0, 203.0, 179.0, 203.0, 223.0, 179.0, 179.0, 209.0, 223.0, 153.0, 185.0, 203.0, 158.0, 168.0, 174.0, 149.0, 174.0, 158.0, 174.0, 168.0, 127.0, 174.0, 168.0, 174.0, 163.0, 144.0, 191.0, 119.5, 191.0, 149.0, 123.0, 131.0, 123.0, 127.0, 131.0, 144.0, 131.0, 153.0, 153.0, 135.0, 135.0, 140.0, 153.0, 108.5, 131.0, 144.0, 119.5, 131.0, 127.0, 115.5, 123.0, 127.0, 108.5, 127.0, 105.5, 115.5, 123.0, 140.0, 131.0, 102.0, 115.5, 105.5, 90.0, 123.0, 127.0, 105.5, 115.5, 99.0, 99.0, 115.5, 108.5, 99.0, 87.5, 102.0, 93.0, 102.0, 96.0, 96.0, 90.0, 119.5, 96.0, 123.0, 87.5, 84.5, 108.5, 90.0, 96.0, 93.0, 102.0, 93.0, 96.0, 87.5, 90.0, 108.5, 77.0, 105.5, 119.5, 105.5, 96.0, 90.0, 84.5, 84.5, 84.5, 93.0, 77.0, 90.0, 79.5, 87.5, 84.5, 93.0, 84.5, 74.5, 90.0, 74.5, 93.0, 74.5, 99.0, 72.5, 105.5, 82.0, 82.0, 87.5, 77.0, 79.5, 93.0, 82.0, 77.0, 74.5, 68.0, 72.5, 84.5, 93.0, 93.0, 93.0, 68.0, 79.5, 66.0, 72.5, 74.5, 72.5, 66.0, 68.0, 72.5, 72.5, 70.0, 82.0, 70.0, 54.75, 74.5, 72.5, 62.0, 77.0, 66.0, 62.0, 64.0, 79.5, 60.0, 64.0, 62.0, 64.0, 60.0, 84.5, 70.0, 58.25, 62.0, 72.5, 72.5, 79.5, 58.25, 64.0, 66.0, 64.0, 70.0, 70.0, 70.0, 56.25, 82.0, 66.0, 72.5, 62.0, 72.5, 74.5, 72.5, 64.0, 70.0, 70.0, 72.5, 64.0, 68.0, 74.5, 70.0, 64.0, 72.5, 60.0, 58.25, 60.0, 74.5, 64.0, 60.0, 58.25, 62.0, 70.0, 93.0, 56.25, 84.5, 79.5, 74.5, 64.0, 74.5, 64.0, 62.0, 70.0, 64.0, 64.0, 56.25, 72.5, 77.0, 52.25, 74.5, 60.0, 60.0, 62.0, 58.25, 60.0, 66.0, 58.25, 62.0, 64.0, 72.5, 68.0, 62.0, 49.75, 62.0, 64.0, 66.0, 64.0, 66.0, 66.0, 74.5, 62.0, 68.0, 64.0, 68.0, 58.25, 46.75, 49.75, 64.0, 66.0, 77.0, 64.0, 62.0, 70.0, 64.0, 68.0, 46.0, 68.0, 53.75, 70.0, 64.0, 77.0, 66.0, 66.0, 70.0, 64.0, 68.0, 56.25, 50.5, 68.0, 48.25, 58.25, 62.0, 56.25, 58.25, 68.0, 62.0, 68.0, 66.0, 66.0, 58.25, 52.25, 49.75, 44.0, 47.5, 49.0, 49.0, 42.0, 44.0, 42.0, 51.25, 43.25, 47.5, 56.25, 47.5, 58.25, 50.5, 48.25, 48.25, 46.0, 43.25, 53.0, 46.0, 46.75, 58.25, 52.25, 49.0, 54.75, 49.0, 47.5, 46.0, 42.5, 49.75, 49.75, 53.0, 42.0, 46.75, 53.0, 48.25, 48.25, 47.5, 47.5, 49.0, 44.5, 44.0, 53.75, 46.75, 44.5, 47.5, 53.0, 46.75, 54.75, 44.0, 49.0, 51.25, 54.75, 44.5, 44.0, 46.0, 53.0, 53.75, 49.0, 50.5, 46.0, 44.5, 46.0, 46.0, 49.75, 53.0, 44.5, 44.5, 48.25, 54.75, 48.25, 56.25, 53.0, 44.5, 52.25, 43.25, 53.0, 43.25, 46.75, 50.5, 46.75, 51.25, 54.75, 46.75, 46.0, 45.25, 42.0, 52.25, 60.0, 53.75, 38.25, 50.5, 40.5, 56.25, 46.0, 45.25, 42.5, 47.5, 45.25, 51.25, 56.25, 53.0, 58.25, 56.25, 54.75, 68.0, 46.75, 49.0, 52.25, 58.25, 45.25, 50.5, 47.5, 53.0, 54.75, 41.25, 58.25, 58.25, 56.25, 45.25, 53.75, 49.0, 52.25, 46.0, 40.5, 41.25, 58.25, 46.75, 54.75, 60.0, 43.25, 60.0, 45.25, 52.25, 50.5, 49.0, 53.0, 52.25, 60.0, 48.25, 49.75, 41.25, 58.25, 46.0, 53.0, 51.25, 48.25, 41.25, 51.25, 43.25, 46.75, 52.25, 52.25, 50.5, 48.25, 42.5, 52.25, 49.0, 51.25, 53.0, 58.25, 49.75, 48.25, 47.5, 56.25, 52.25, 47.5, 49.0, 43.25, 58.25, 39.25, 46.0, 53.0, 40.5, 51.25, 56.25, 49.75, 46.0, 50.5, 53.0, 48.25, 53.0, 49.75, 44.5, 50.5, 53.0, 64.0, 56.25, 46.75, 56.25, 37.0, 48.25, 60.0, 62.0, 56.25, 44.0, 49.75, 48.25, 46.75, 40.0, 50.5, 41.25, 40.5, 42.0, 44.5, 41.25, 43.25, 40.5, 38.75, 48.25, 45.25, 40.5, 49.0, 34.25, 42.5, 40.0, 51.25, 45.25, 49.75, 44.5, 44.5, 46.75, 46.75, 46.75, 36.5, 48.25, 41.25, 44.5, 43.25, 42.0, 47.5, 46.75, 37.5, 49.0, 45.25, 44.0, 44.0, 46.75, 47.5, 43.25, 42.5, 46.75, 42.0, 40.5, 52.25, 44.5, 40.0, 58.25, 54.75, 44.0, 37.5, 42.5, 40.0, 50.5, 60.0, 39.25, 37.5, 40.0, 46.0, 53.0, 46.75, 41.25, 40.0, 43.25, 53.75, 38.75, 42.0, 38.25, 44.5, 48.25, 37.5, 47.5, 38.75, 56.25, 46.75, 43.25, 49.0, 44.5, 45.25, 49.0, 42.5, 53.0, 37.0, 34.25, 35.75, 35.75, 36.5, 33.25, 37.0, 33.25, 37.5, 34.75, 31.625, 40.5, 34.75, 38.75, 34.75, 31.625, 33.25, 33.75, 35.25, 44.0, 34.25, 35.75, 37.5, 35.75, 37.0, 34.75, 34.75, 37.5, 38.75, 34.25, 34.75, 37.5, 33.25, 34.75, 40.5, 37.0, 33.25, 34.75, 27.5, 33.25, 36.5, 31.125, 30.625, 33.75, 38.75, 34.75, 35.25, 35.75, 36.5, 38.25, 37.0, 44.0, 31.625, 38.25, 35.75, 36.5, 32.5, 37.5, 35.25, 38.75, 40.0, 35.75, 34.25, 37.5, 32.5, 37.5, 33.25, 32.0, 33.75, 37.5, 33.75, 31.125, 32.5, 29.25, 36.5, 39.25, 30.625, 31.625, 40.0, 37.0, 35.75, 28.75, 34.75, 37.5, 40.5, 33.25, 35.25, 32.5, 36.5, 32.5, 33.75, 35.25, 37.5, 34.25, 31.125, 27.875, 37.0, 34.75, 35.75, 37.0, 40.0, 33.25, 35.75, 32.0]","[10.9375, 7.25, 6.84375, 6.46875, 6.4375, 6.34375, 6.21875, 6.15625, 6.03125, 6.0, 5.96875, 6.03125, 5.84375, 5.75, 5.75, 5.625, 5.65625, 5.5625, 5.625, 5.53125, 5.59375, 5.5, 5.59375, 5.34375, 5.34375, 5.34375, 5.28125, 5.375, 5.34375, 5.375, 5.28125, 5.15625, 5.1875, 5.21875, 5.15625, 5.25, 5.21875, 5.125, 5.1875, 5.0625, 5.15625, 5.09375, 5.1875, 5.09375, 5.0, 5.03125, 5.0625, 4.9375, 5.0, 5.0625, 5.03125, 4.90625, 5.09375, 4.90625, 4.8125, 4.875, 4.875, 4.875, 4.90625, 4.90625, 4.8125, 4.90625, 4.78125, 4.875, 4.96875, 4.9375, 4.8125, 4.875, 4.96875, 4.78125, 4.96875, 4.90625, 4.84375, 4.84375, 4.84375, 4.8125, 4.8125, 4.84375, 4.6875, 4.71875, 4.84375, 4.78125, 4.65625, 4.6875, 4.78125, 4.59375, 4.71875, 4.75, 4.625, 4.5625, 4.59375, 4.53125, 4.625, 4.625, 4.625, 4.65625, 4.59375, 4.53125, 4.625, 4.625, 4.5625, 4.53125, 4.59375, 4.40625, 4.40625, 4.5625, 4.5625, 4.53125, 4.5625, 4.40625, 4.46875, 4.59375, 4.59375, 4.53125, 4.4375, 4.46875, 4.4375, 4.46875, 4.4375, 4.3125, 4.375, 4.46875, 4.375, 4.46875, 4.375, 4.40625, 4.5, 4.3125, 4.40625, 4.34375, 4.34375, 4.28125, 4.40625, 4.25, 4.28125, 4.46875, 4.25, 4.34375, 4.34375, 4.40625, 4.34375, 4.3125, 4.1875, 4.28125, 4.34375, 4.3125, 4.21875, 4.3125, 4.25, 4.28125, 4.28125, 4.3125, 4.25, 4.1875, 4.28125, 4.25, 4.3125, 4.21875, 4.25, 4.25, 4.375, 4.1875, 4.15625, 4.3125, 4.15625, 4.15625, 4.28125, 4.25, 4.1875, 4.09375, 4.21875, 4.1875, 4.21875, 4.1875, 4.25, 4.28125, 4.0625, 4.125, 4.0625, 4.1875, 4.21875, 4.125, 4.15625, 4.15625, 4.125, 4.15625, 4.1875, 4.125, 4.09375, 4.0, 4.125, 4.1875, 4.09375, 4.15625, 4.09375, 4.125, 3.96875, 4.15625, 4.09375, 4.0, 4.03125, 4.03125, 4.09375, 4.21875, 4.15625, 4.0, 4.09375, 4.09375, 4.09375, 4.09375, 4.0625, 4.15625, 4.0, 4.09375, 4.09375, 4.09375, 4.09375, 4.03125, 4.15625, 4.09375, 4.09375, 3.921875, 4.03125, 4.09375, 4.03125, 4.03125, 4.0, 4.0625, 3.984375, 4.0, 4.03125, 4.03125, 4.0625, 3.96875, 4.125, 4.03125, 3.9375, 3.9375, 4.03125, 3.96875, 3.953125, 4.0, 3.984375, 4.0, 4.09375, 3.921875, 4.0625, 4.09375, 4.125, 4.03125, 3.984375, 4.0, 4.03125, 4.0625, 3.96875, 3.953125, 3.984375, 3.921875, 4.03125, 3.921875, 4.03125, 3.84375, 3.921875, 3.890625, 3.953125, 3.9375, 3.9375, 3.890625, 3.90625, 3.90625, 3.90625, 3.921875, 3.875, 4.0, 3.875, 3.859375, 3.921875, 3.96875, 3.9375, 3.890625, 3.96875, 3.953125, 3.953125, 3.96875, 3.921875, 3.9375, 3.78125, 3.8125, 3.9375, 4.03125, 3.96875, 3.9375, 3.953125, 3.953125, 3.96875, 3.890625, 3.859375, 3.953125, 3.8125, 3.90625, 4.0, 3.921875, 3.859375, 3.859375, 3.921875, 3.859375, 3.890625, 3.859375, 3.796875, 3.984375, 3.84375, 3.828125, 3.9375, 3.90625, 3.890625, 3.90625, 3.890625, 3.875, 3.921875, 3.953125, 3.859375, 3.875, 3.875, 3.828125, 3.828125, 3.828125, 3.90625, 3.828125, 3.859375, 3.8125, 3.9375, 3.84375, 3.859375, 3.890625, 3.84375, 3.921875, 3.78125, 3.84375, 3.859375, 3.890625, 3.703125, 3.9375, 3.828125, 3.84375, 3.90625, 3.9375, 3.84375, 3.84375, 3.8125, 3.78125, 3.828125, 3.765625, 3.734375, 3.90625, 3.875, 3.6875, 3.828125, 3.84375, 3.875, 3.8125, 3.890625, 3.828125, 3.84375, 3.71875, 3.8125, 3.90625, 3.796875, 3.859375, 3.859375, 3.890625, 3.765625, 3.90625, 3.796875, 3.828125, 3.859375, 3.9375, 3.78125, 3.828125, 3.78125, 3.90625, 3.875, 3.8125, 3.8125, 3.796875, 3.765625, 3.75, 3.71875, 3.78125, 3.875, 3.8125, 3.828125, 3.765625, 3.828125, 3.84375, 3.84375, 3.890625, 3.84375, 3.828125, 3.75, 3.9375, 3.65625, 3.875, 3.78125, 3.734375, 3.765625, 3.859375, 3.71875, 3.78125, 3.734375, 3.671875, 3.84375, 3.84375, 3.890625, 3.609375, 3.765625, 3.65625, 3.8125, 3.65625, 3.671875, 3.65625, 3.75, 3.6875, 3.78125, 3.796875, 3.71875, 3.828125, 3.75, 3.796875, 3.859375, 3.71875, 3.6875, 3.78125, 3.796875, 3.6875, 3.65625, 3.78125, 3.703125, 3.78125, 3.625, 3.765625, 3.859375, 3.796875, 3.71875, 3.859375, 3.71875, 3.71875, 3.859375, 3.75, 3.703125, 3.765625, 3.75, 3.6875, 3.78125, 3.671875, 3.734375, 3.640625, 3.8125, 3.8125, 3.71875, 3.71875, 3.78125, 3.765625, 3.71875, 3.78125, 3.671875, 3.765625, 3.609375, 3.796875, 3.6875, 3.703125, 3.703125, 3.703125, 3.671875, 3.6875, 3.796875, 3.671875, 3.734375, 3.6875, 3.703125, 3.609375, 3.734375, 3.75, 3.765625, 3.828125, 3.796875, 3.65625, 3.625, 3.84375, 3.734375, 3.640625, 3.671875, 3.640625, 3.765625, 3.703125, 3.6875, 3.765625, 3.625, 3.6875, 3.6875, 3.671875, 3.734375, 3.6875, 3.6875, 3.640625, 3.765625, 3.703125, 3.734375, 3.734375, 3.78125, 3.78125, 3.65625, 3.65625, 3.765625, 3.59375, 3.609375, 3.625, 3.765625, 3.703125, 3.640625, 3.625, 3.625, 3.734375, 3.609375, 3.734375, 3.625, 3.609375, 3.734375, 3.65625, 3.640625, 3.65625, 3.59375, 3.640625, 3.71875, 3.671875, 3.640625, 3.6875, 3.5625, 3.703125, 3.59375, 3.671875, 3.65625, 3.65625, 3.578125, 3.6875, 3.59375, 3.625, 3.703125, 3.53125, 3.71875, 3.609375, 3.703125, 3.625, 3.640625, 3.6875, 3.6875, 3.546875, 3.6875, 3.578125, 3.578125, 3.59375, 3.6875, 3.65625, 3.65625, 3.59375, 3.625, 3.578125, 3.5, 3.65625, 3.671875, 3.59375, 3.703125, 3.703125, 3.625, 3.5, 3.625, 3.609375, 3.6875, 3.609375, 3.515625, 3.5625, 3.53125, 3.734375, 3.65625, 3.609375, 3.5625, 3.5, 3.5625, 3.625, 3.5625, 3.640625, 3.484375, 3.640625, 3.671875, 3.65625, 3.53125, 3.46875, 3.71875, 3.625, 3.609375, 3.65625, 3.59375, 3.578125, 3.71875, 3.59375, 3.59375, 3.609375, 3.578125, 3.59375, 3.546875, 3.5625, 3.53125, 3.609375, 3.546875, 3.59375, 3.578125, 3.40625, 3.65625, 3.59375, 3.609375, 3.515625, 3.5625, 3.515625, 3.453125, 3.578125, 3.6875, 3.53125, 3.515625, 3.625, 3.515625, 3.515625, 3.453125, 3.515625, 3.5625, 3.53125, 3.46875, 3.53125, 3.53125, 3.53125, 3.5625, 3.609375, 3.5, 3.453125, 3.53125, 3.390625, 3.484375, 3.59375, 3.453125, 3.40625, 3.484375, 3.609375, 3.421875, 3.484375, 3.53125, 3.5625, 3.546875, 3.5625, 3.671875, 3.5, 3.578125, 3.484375, 3.5, 3.421875, 3.515625, 3.5625, 3.484375, 3.59375, 3.578125, 3.5625, 3.484375, 3.484375, 3.625, 3.40625, 3.40625, 3.484375, 3.515625, 3.5, 3.515625, 3.40625, 3.421875, 3.453125, 3.515625, 3.421875, 3.4375, 3.515625, 3.46875, 3.453125, 3.484375, 3.4375, 3.53125, 3.546875, 3.484375, 3.484375, 3.4375, 3.5, 3.375, 3.5, 3.484375, 3.625, 3.546875, 3.421875, 3.375, 3.453125, 3.515625, 3.484375, 3.46875, 3.59375, 3.46875, 3.515625, 3.46875]","[56320.0, 1408.0, 940.0, 644.0, 624.0, 568.0, 502.0, 472.0, 416.0, 404.0, 392.0, 416.0, 346.0, 314.0, 314.0, 278.0, 286.0, 260.0, 278.0, 253.0, 270.0, 245.0, 270.0, 209.0, 209.0, 209.0, 197.0, 216.0, 209.0, 216.0, 197.0, 174.0, 179.0, 185.0, 174.0, 191.0, 185.0, 168.0, 179.0, 158.0, 174.0, 163.0, 179.0, 163.0, 149.0, 153.0, 158.0, 140.0, 149.0, 158.0, 153.0, 135.0, 163.0, 135.0, 123.0, 131.0, 131.0, 131.0, 135.0, 135.0, 123.0, 135.0, 119.5, 131.0, 144.0, 140.0, 123.0, 131.0, 144.0, 119.5, 144.0, 135.0, 127.0, 127.0, 127.0, 123.0, 123.0, 127.0, 108.5, 112.0, 127.0, 119.5, 105.5, 108.5, 119.5, 99.0, 112.0, 115.5, 102.0, 96.0, 99.0, 93.0, 102.0, 102.0, 102.0, 105.5, 99.0, 93.0, 102.0, 102.0, 96.0, 93.0, 99.0, 82.0, 82.0, 96.0, 96.0, 93.0, 96.0, 82.0, 87.5, 99.0, 99.0, 93.0, 84.5, 87.5, 84.5, 87.5, 84.5, 74.5, 79.5, 87.5, 79.5, 87.5, 79.5, 82.0, 90.0, 74.5, 82.0, 77.0, 77.0, 72.5, 82.0, 70.0, 72.5, 87.5, 70.0, 77.0, 77.0, 82.0, 77.0, 74.5, 66.0, 72.5, 77.0, 74.5, 68.0, 74.5, 70.0, 72.5, 72.5, 74.5, 70.0, 66.0, 72.5, 70.0, 74.5, 68.0, 70.0, 70.0, 79.5, 66.0, 64.0, 74.5, 64.0, 64.0, 72.5, 70.0, 66.0, 60.0, 68.0, 66.0, 68.0, 66.0, 70.0, 72.5, 58.25, 62.0, 58.25, 66.0, 68.0, 62.0, 64.0, 64.0, 62.0, 64.0, 66.0, 62.0, 60.0, 54.75, 62.0, 66.0, 60.0, 64.0, 60.0, 62.0, 53.0, 64.0, 60.0, 54.75, 56.25, 56.25, 60.0, 68.0, 64.0, 54.75, 60.0, 60.0, 60.0, 60.0, 58.25, 64.0, 54.75, 60.0, 60.0, 60.0, 60.0, 56.25, 64.0, 60.0, 60.0, 50.5, 56.25, 60.0, 56.25, 56.25, 54.75, 58.25, 53.75, 54.75, 56.25, 56.25, 58.25, 53.0, 62.0, 56.25, 51.25, 51.25, 56.25, 53.0, 52.25, 54.75, 53.75, 54.75, 60.0, 50.5, 58.25, 60.0, 62.0, 56.25, 53.75, 54.75, 56.25, 58.25, 53.0, 52.25, 53.75, 50.5, 56.25, 50.5, 56.25, 46.75, 50.5, 49.0, 52.25, 51.25, 51.25, 49.0, 49.75, 49.75, 49.75, 50.5, 48.25, 54.75, 48.25, 47.5, 50.5, 53.0, 51.25, 49.0, 53.0, 52.25, 52.25, 53.0, 50.5, 51.25, 44.0, 45.25, 51.25, 56.25, 53.0, 51.25, 52.25, 52.25, 53.0, 49.0, 47.5, 52.25, 45.25, 49.75, 54.75, 50.5, 47.5, 47.5, 50.5, 47.5, 49.0, 47.5, 44.5, 53.75, 46.75, 46.0, 51.25, 49.75, 49.0, 49.75, 49.0, 48.25, 50.5, 52.25, 47.5, 48.25, 48.25, 46.0, 46.0, 46.0, 49.75, 46.0, 47.5, 45.25, 51.25, 46.75, 47.5, 49.0, 46.75, 50.5, 44.0, 46.75, 47.5, 49.0, 40.5, 51.25, 46.0, 46.75, 49.75, 51.25, 46.75, 46.75, 45.25, 44.0, 46.0, 43.25, 42.0, 49.75, 48.25, 40.0, 46.0, 46.75, 48.25, 45.25, 49.0, 46.0, 46.75, 41.25, 45.25, 49.75, 44.5, 47.5, 47.5, 49.0, 43.25, 49.75, 44.5, 46.0, 47.5, 51.25, 44.0, 46.0, 44.0, 49.75, 48.25, 45.25, 45.25, 44.5, 43.25, 42.5, 41.25, 44.0, 48.25, 45.25, 46.0, 43.25, 46.0, 46.75, 46.75, 49.0, 46.75, 46.0, 42.5, 51.25, 38.75, 48.25, 44.0, 42.0, 43.25, 47.5, 41.25, 44.0, 42.0, 39.25, 46.75, 46.75, 49.0, 37.0, 43.25, 38.75, 45.25, 38.75, 39.25, 38.75, 42.5, 40.0, 44.0, 44.5, 41.25, 46.0, 42.5, 44.5, 47.5, 41.25, 40.0, 44.0, 44.5, 40.0, 38.75, 44.0, 40.5, 44.0, 37.5, 43.25, 47.5, 44.5, 41.25, 47.5, 41.25, 41.25, 47.5, 42.5, 40.5, 43.25, 42.5, 40.0, 44.0, 39.25, 42.0, 38.25, 45.25, 45.25, 41.25, 41.25, 44.0, 43.25, 41.25, 44.0, 39.25, 43.25, 37.0, 44.5, 40.0, 40.5, 40.5, 40.5, 39.25, 40.0, 44.5, 39.25, 42.0, 40.0, 40.5, 37.0, 42.0, 42.5, 43.25, 46.0, 44.5, 38.75, 37.5, 46.75, 42.0, 38.25, 39.25, 38.25, 43.25, 40.5, 40.0, 43.25, 37.5, 40.0, 40.0, 39.25, 42.0, 40.0, 40.0, 38.25, 43.25, 40.5, 42.0, 42.0, 44.0, 44.0, 38.75, 38.75, 43.25, 36.5, 37.0, 37.5, 43.25, 40.5, 38.25, 37.5, 37.5, 42.0, 37.0, 42.0, 37.5, 37.0, 42.0, 38.75, 38.25, 38.75, 36.5, 38.25, 41.25, 39.25, 38.25, 40.0, 35.25, 40.5, 36.5, 39.25, 38.75, 38.75, 35.75, 40.0, 36.5, 37.5, 40.5, 34.25, 41.25, 37.0, 40.5, 37.5, 38.25, 40.0, 40.0, 34.75, 40.0, 35.75, 35.75, 36.5, 40.0, 38.75, 38.75, 36.5, 37.5, 35.75, 33.25, 38.75, 39.25, 36.5, 40.5, 40.5, 37.5, 33.25, 37.5, 37.0, 40.0, 37.0, 33.75, 35.25, 34.25, 42.0, 38.75, 37.0, 35.25, 33.25, 35.25, 37.5, 35.25, 38.25, 32.5, 38.25, 39.25, 38.75, 34.25, 32.0, 41.25, 37.5, 37.0, 38.75, 36.5, 35.75, 41.25, 36.5, 36.5, 37.0, 35.75, 36.5, 34.75, 35.25, 34.25, 37.0, 34.75, 36.5, 35.75, 30.125, 38.75, 36.5, 37.0, 33.75, 35.25, 33.75, 31.625, 35.75, 40.0, 34.25, 33.75, 37.5, 33.75, 33.75, 31.625, 33.75, 35.25, 34.25, 32.0, 34.25, 34.25, 34.25, 35.25, 37.0, 33.25, 31.625, 34.25, 29.75, 32.5, 36.5, 31.625, 30.125, 32.5, 37.0, 30.625, 32.5, 34.25, 35.25, 34.75, 35.25, 39.25, 33.25, 35.75, 32.5, 33.25, 30.625, 33.75, 35.25, 32.5, 36.5, 35.75, 35.25, 32.5, 32.5, 37.5, 30.125, 30.125, 32.5, 33.75, 33.25, 33.75, 30.125, 30.625, 31.625, 33.75, 30.625, 31.125, 33.75, 32.0, 31.625, 32.5, 31.125, 34.25, 34.75, 32.5, 32.5, 31.125, 33.25, 29.25, 33.25, 32.5, 37.5, 34.75, 30.625, 29.25, 31.625, 33.75, 32.5, 32.0, 36.5, 32.0, 33.75, 32.0]","[10.9375, 7.59375, 7.125, 6.84375, 6.84375, 6.78125, 6.6875, 6.71875, 6.59375, 6.53125, 6.5, 6.5625, 6.375, 6.3125, 6.28125, 6.21875, 6.25, 6.125, 6.21875, 6.125, 6.1875, 6.09375, 6.15625, 6.0, 5.96875, 5.9375, 5.90625, 6.0, 5.9375, 6.0, 5.9375, 5.8125, 5.875, 5.90625, 5.8125, 5.90625, 5.84375, 5.8125, 5.84375, 5.71875, 5.8125, 5.71875, 5.84375, 5.78125, 5.71875, 5.71875, 5.71875, 5.625, 5.6875, 5.75, 5.71875, 5.65625, 5.78125, 5.625, 5.53125, 5.53125, 5.59375, 5.65625, 5.59375, 5.625, 5.5625, 5.65625, 5.53125, 5.625, 5.6875, 5.625, 5.53125, 5.59375, 5.65625, 5.5, 5.65625, 5.625, 5.5625, 5.5625, 5.5625, 5.53125, 5.53125, 5.5625, 5.46875, 5.4375, 5.5625, 5.5, 5.375, 5.46875, 5.5, 5.375, 5.46875, 5.5, 5.375, 5.3125, 5.34375, 5.3125, 5.34375, 5.375, 5.4375, 5.4375, 5.40625, 5.3125, 5.34375, 5.375, 5.375, 5.3125, 5.40625, 5.1875, 5.1875, 5.375, 5.34375, 5.34375, 5.34375, 5.21875, 5.25, 5.375, 5.375, 5.28125, 5.25, 5.25, 5.25, 5.25, 5.25, 5.125, 5.15625, 5.28125, 5.1875, 5.28125, 5.1875, 5.25, 5.3125, 5.125, 5.25, 5.15625, 5.15625, 5.09375, 5.1875, 5.09375, 5.125, 5.28125, 5.09375, 5.15625, 5.15625, 5.25, 5.15625, 5.125, 5.03125, 5.125, 5.15625, 5.125, 5.125, 5.15625, 5.09375, 5.09375, 5.125, 5.15625, 5.09375, 5.03125, 5.09375, 5.0625, 5.1875, 5.0625, 5.03125, 5.125, 5.1875, 5.0, 5.03125, 5.1875, 5.03125, 5.0625, 5.125, 5.125, 5.03125, 5.0, 5.125, 5.0625, 5.09375, 5.03125, 5.125, 5.09375, 4.96875, 5.0, 4.9375, 5.0625, 5.09375, 5.0, 4.96875, 5.0625, 5.0, 5.03125, 5.0625, 5.03125, 4.9375, 4.875, 5.0, 5.03125, 4.96875, 5.03125, 5.0, 4.96875, 4.84375, 5.0, 4.96875, 4.90625, 4.90625, 4.90625, 4.9375, 5.0625, 5.03125, 4.9375, 4.96875, 4.96875, 4.96875, 4.96875, 4.90625, 5.03125, 4.90625, 4.96875, 4.96875, 5.0, 5.0, 4.90625, 5.03125, 5.0, 5.0, 4.84375, 4.90625, 4.96875, 4.9375, 4.9375, 4.90625, 4.9375, 4.875, 4.875, 4.96875, 4.9375, 4.96875, 4.9375, 4.9375, 4.90625, 4.84375, 4.875, 4.9375, 4.90625, 4.84375, 4.9375, 4.875, 4.9375, 5.03125, 4.84375, 4.96875, 4.9375, 5.0, 4.96875, 4.90625, 4.90625, 4.96875, 4.96875, 4.9375, 4.9375, 4.875, 4.84375, 4.90625, 4.78125, 4.96875, 4.75, 4.875, 4.8125, 4.90625, 4.875, 4.84375, 4.84375, 4.875, 4.84375, 4.84375, 4.84375, 4.84375, 4.90625, 4.8125, 4.8125, 4.8125, 4.875, 4.84375, 4.8125, 4.875, 4.84375, 4.875, 4.90625, 4.875, 4.84375, 4.75, 4.78125, 4.875, 4.90625, 4.875, 4.84375, 4.84375, 4.875, 4.875, 4.78125, 4.8125, 4.8125, 4.75, 4.84375, 4.9375, 4.875, 4.78125, 4.8125, 4.8125, 4.84375, 4.8125, 4.78125, 4.6875, 4.875, 4.78125, 4.75, 4.8125, 4.84375, 4.8125, 4.84375, 4.84375, 4.78125, 4.875, 4.90625, 4.78125, 4.84375, 4.78125, 4.75, 4.78125, 4.78125, 4.84375, 4.75, 4.8125, 4.75, 4.875, 4.75, 4.8125, 4.8125, 4.78125, 4.875, 4.71875, 4.8125, 4.75, 4.8125, 4.65625, 4.875, 4.78125, 4.8125, 4.8125, 4.875, 4.78125, 4.78125, 4.75, 4.71875, 4.8125, 4.75, 4.71875, 4.84375, 4.8125, 4.625, 4.78125, 4.78125, 4.78125, 4.71875, 4.8125, 4.78125, 4.78125, 4.6875, 4.75, 4.84375, 4.75, 4.78125, 4.78125, 4.84375, 4.71875, 4.8125, 4.75, 4.75, 4.84375, 4.875, 4.71875, 4.78125, 4.71875, 4.84375, 4.8125, 4.78125, 4.75, 4.71875, 4.6875, 4.6875, 4.65625, 4.75, 4.8125, 4.71875, 4.78125, 4.71875, 4.78125, 4.75, 4.78125, 4.84375, 4.78125, 4.75, 4.71875, 4.875, 4.65625, 4.78125, 4.71875, 4.6875, 4.78125, 4.8125, 4.6875, 4.75, 4.6875, 4.625, 4.78125, 4.8125, 4.84375, 4.59375, 4.71875, 4.65625, 4.71875, 4.65625, 4.65625, 4.625, 4.71875, 4.625, 4.75, 4.71875, 4.6875, 4.78125, 4.71875, 4.75, 4.78125, 4.6875, 4.6875, 4.75, 4.71875, 4.625, 4.625, 4.71875, 4.625, 4.75, 4.625, 4.71875, 4.8125, 4.78125, 4.6875, 4.78125, 4.71875, 4.65625, 4.78125, 4.75, 4.6875, 4.71875, 4.6875, 4.65625, 4.75, 4.625, 4.6875, 4.5625, 4.75, 4.71875, 4.71875, 4.65625, 4.71875, 4.71875, 4.71875, 4.75, 4.65625, 4.71875, 4.53125, 4.78125, 4.65625, 4.6875, 4.6875, 4.6875, 4.625, 4.6875, 4.78125, 4.65625, 4.6875, 4.625, 4.65625, 4.625, 4.71875, 4.71875, 4.71875, 4.75, 4.75, 4.625, 4.59375, 4.8125, 4.71875, 4.59375, 4.625, 4.59375, 4.71875, 4.65625, 4.625, 4.71875, 4.65625, 4.65625, 4.6875, 4.65625, 4.6875, 4.6875, 4.65625, 4.625, 4.75, 4.6875, 4.65625, 4.6875, 4.75, 4.78125, 4.65625, 4.625, 4.71875, 4.5625, 4.625, 4.59375, 4.75, 4.6875, 4.625, 4.625, 4.59375, 4.6875, 4.625, 4.71875, 4.5625, 4.625, 4.71875, 4.65625, 4.65625, 4.625, 4.5625, 4.65625, 4.6875, 4.65625, 4.625, 4.65625, 4.5625, 4.71875, 4.59375, 4.625, 4.59375, 4.625, 4.5625, 4.71875, 4.5625, 4.59375, 4.65625, 4.53125, 4.71875, 4.59375, 4.6875, 4.625, 4.65625, 4.6875, 4.65625, 4.5625, 4.625, 4.5625, 4.5625, 4.5625, 4.625, 4.625, 4.625, 4.625, 4.625, 4.59375, 4.5, 4.65625, 4.625, 4.59375, 4.6875, 4.65625, 4.625, 4.5, 4.59375, 4.59375, 4.65625, 4.625, 4.53125, 4.53125, 4.53125, 4.65625, 4.65625, 4.5625, 4.5625, 4.5, 4.59375, 4.59375, 4.53125, 4.625, 4.5, 4.59375, 4.65625, 4.65625, 4.53125, 4.46875, 4.71875, 4.625, 4.625, 4.625, 4.625, 4.5625, 4.6875, 4.5625, 4.59375, 4.5625, 4.5625, 4.5625, 4.5625, 4.5625, 4.5, 4.59375, 4.53125, 4.5625, 4.5625, 4.40625, 4.625, 4.59375, 4.59375, 4.53125, 4.53125, 4.53125, 4.5, 4.5625, 4.65625, 4.5, 4.5, 4.625, 4.5, 4.46875, 4.5, 4.5, 4.5625, 4.53125, 4.46875, 4.5625, 4.5, 4.53125, 4.59375, 4.625, 4.5, 4.53125, 4.5, 4.40625, 4.5, 4.53125, 4.46875, 4.375, 4.46875, 4.59375, 4.46875, 4.5, 4.53125, 4.59375, 4.5625, 4.53125, 4.6875, 4.5, 4.5625, 4.5, 4.5, 4.40625, 4.53125, 4.53125, 4.53125, 4.59375, 4.53125, 4.5625, 4.5, 4.5, 4.625, 4.4375, 4.40625, 4.46875, 4.53125, 4.53125, 4.5, 4.40625, 4.46875, 4.46875, 4.53125, 4.40625, 4.46875, 4.5625, 4.53125, 4.46875, 4.46875, 4.4375, 4.5625, 4.53125, 4.5, 4.5, 4.4375, 4.5, 4.40625, 4.46875, 4.5, 4.59375, 4.53125, 4.46875, 4.40625, 4.46875, 4.5, 4.5, 4.46875, 4.625, 4.46875, 4.53125, 4.5]","[56320.0, 1992.0, 1248.0, 940.0, 940.0, 884.0, 804.0, 828.0, 732.0, 688.0, 664.0, 708.0, 588.0, 552.0, 536.0, 502.0, 520.0, 458.0, 502.0, 458.0, 488.0, 444.0, 472.0, 404.0, 392.0, 380.0, 368.0, 404.0, 380.0, 404.0, 380.0, 334.0, 356.0, 368.0, 334.0, 368.0, 346.0, 334.0, 346.0, 304.0, 334.0, 304.0, 346.0, 324.0, 304.0, 304.0, 304.0, 278.0, 296.0, 314.0, 304.0, 286.0, 324.0, 278.0, 253.0, 253.0, 270.0, 286.0, 270.0, 278.0, 260.0, 286.0, 253.0, 278.0, 296.0, 278.0, 253.0, 270.0, 286.0, 245.0, 286.0, 278.0, 260.0, 260.0, 260.0, 253.0, 253.0, 260.0, 237.0, 230.0, 260.0, 245.0, 216.0, 237.0, 245.0, 216.0, 237.0, 245.0, 216.0, 203.0, 209.0, 203.0, 209.0, 216.0, 230.0, 230.0, 223.0, 203.0, 209.0, 216.0, 216.0, 203.0, 223.0, 179.0, 179.0, 216.0, 209.0, 209.0, 209.0, 185.0, 191.0, 216.0, 216.0, 197.0, 191.0, 191.0, 191.0, 191.0, 191.0, 168.0, 174.0, 197.0, 179.0, 197.0, 179.0, 191.0, 203.0, 168.0, 191.0, 174.0, 174.0, 163.0, 179.0, 163.0, 168.0, 197.0, 163.0, 174.0, 174.0, 191.0, 174.0, 168.0, 153.0, 168.0, 174.0, 168.0, 168.0, 174.0, 163.0, 163.0, 168.0, 174.0, 163.0, 153.0, 163.0, 158.0, 179.0, 158.0, 153.0, 168.0, 179.0, 149.0, 153.0, 179.0, 153.0, 158.0, 168.0, 168.0, 153.0, 149.0, 168.0, 158.0, 163.0, 153.0, 168.0, 163.0, 144.0, 149.0, 140.0, 158.0, 163.0, 149.0, 144.0, 158.0, 149.0, 153.0, 158.0, 153.0, 140.0, 131.0, 149.0, 153.0, 144.0, 153.0, 149.0, 144.0, 127.0, 149.0, 144.0, 135.0, 135.0, 135.0, 140.0, 158.0, 153.0, 140.0, 144.0, 144.0, 144.0, 144.0, 135.0, 153.0, 135.0, 144.0, 144.0, 149.0, 149.0, 135.0, 153.0, 149.0, 149.0, 127.0, 135.0, 144.0, 140.0, 140.0, 135.0, 140.0, 131.0, 131.0, 144.0, 140.0, 144.0, 140.0, 140.0, 135.0, 127.0, 131.0, 140.0, 135.0, 127.0, 140.0, 131.0, 140.0, 153.0, 127.0, 144.0, 140.0, 149.0, 144.0, 135.0, 135.0, 144.0, 144.0, 140.0, 140.0, 131.0, 127.0, 135.0, 119.5, 144.0, 115.5, 131.0, 123.0, 135.0, 131.0, 127.0, 127.0, 131.0, 127.0, 127.0, 127.0, 127.0, 135.0, 123.0, 123.0, 123.0, 131.0, 127.0, 123.0, 131.0, 127.0, 131.0, 135.0, 131.0, 127.0, 115.5, 119.5, 131.0, 135.0, 131.0, 127.0, 127.0, 131.0, 131.0, 119.5, 123.0, 123.0, 115.5, 127.0, 140.0, 131.0, 119.5, 123.0, 123.0, 127.0, 123.0, 119.5, 108.5, 131.0, 119.5, 115.5, 123.0, 127.0, 123.0, 127.0, 127.0, 119.5, 131.0, 135.0, 119.5, 127.0, 119.5, 115.5, 119.5, 119.5, 127.0, 115.5, 123.0, 115.5, 131.0, 115.5, 123.0, 123.0, 119.5, 131.0, 112.0, 123.0, 115.5, 123.0, 105.5, 131.0, 119.5, 123.0, 123.0, 131.0, 119.5, 119.5, 115.5, 112.0, 123.0, 115.5, 112.0, 127.0, 123.0, 102.0, 119.5, 119.5, 119.5, 112.0, 123.0, 119.5, 119.5, 108.5, 115.5, 127.0, 115.5, 119.5, 119.5, 127.0, 112.0, 123.0, 115.5, 115.5, 127.0, 131.0, 112.0, 119.5, 112.0, 127.0, 123.0, 119.5, 115.5, 112.0, 108.5, 108.5, 105.5, 115.5, 123.0, 112.0, 119.5, 112.0, 119.5, 115.5, 119.5, 127.0, 119.5, 115.5, 112.0, 131.0, 105.5, 119.5, 112.0, 108.5, 119.5, 123.0, 108.5, 115.5, 108.5, 102.0, 119.5, 123.0, 127.0, 99.0, 112.0, 105.5, 112.0, 105.5, 105.5, 102.0, 112.0, 102.0, 115.5, 112.0, 108.5, 119.5, 112.0, 115.5, 119.5, 108.5, 108.5, 115.5, 112.0, 102.0, 102.0, 112.0, 102.0, 115.5, 102.0, 112.0, 123.0, 119.5, 108.5, 119.5, 112.0, 105.5, 119.5, 115.5, 108.5, 112.0, 108.5, 105.5, 115.5, 102.0, 108.5, 96.0, 115.5, 112.0, 112.0, 105.5, 112.0, 112.0, 112.0, 115.5, 105.5, 112.0, 93.0, 119.5, 105.5, 108.5, 108.5, 108.5, 102.0, 108.5, 119.5, 105.5, 108.5, 102.0, 105.5, 102.0, 112.0, 112.0, 112.0, 115.5, 115.5, 102.0, 99.0, 123.0, 112.0, 99.0, 102.0, 99.0, 112.0, 105.5, 102.0, 112.0, 105.5, 105.5, 108.5, 105.5, 108.5, 108.5, 105.5, 102.0, 115.5, 108.5, 105.5, 108.5, 115.5, 119.5, 105.5, 102.0, 112.0, 96.0, 102.0, 99.0, 115.5, 108.5, 102.0, 102.0, 99.0, 108.5, 102.0, 112.0, 96.0, 102.0, 112.0, 105.5, 105.5, 102.0, 96.0, 105.5, 108.5, 105.5, 102.0, 105.5, 96.0, 112.0, 99.0, 102.0, 99.0, 102.0, 96.0, 112.0, 96.0, 99.0, 105.5, 93.0, 112.0, 99.0, 108.5, 102.0, 105.5, 108.5, 105.5, 96.0, 102.0, 96.0, 96.0, 96.0, 102.0, 102.0, 102.0, 102.0, 102.0, 99.0, 90.0, 105.5, 102.0, 99.0, 108.5, 105.5, 102.0, 90.0, 99.0, 99.0, 105.5, 102.0, 93.0, 93.0, 93.0, 105.5, 105.5, 96.0, 96.0, 90.0, 99.0, 99.0, 93.0, 102.0, 90.0, 99.0, 105.5, 105.5, 93.0, 87.5, 112.0, 102.0, 102.0, 102.0, 102.0, 96.0, 108.5, 96.0, 99.0, 96.0, 96.0, 96.0, 96.0, 96.0, 90.0, 99.0, 93.0, 96.0, 96.0, 82.0, 102.0, 99.0, 99.0, 93.0, 93.0, 93.0, 90.0, 96.0, 105.5, 90.0, 90.0, 102.0, 90.0, 87.5, 90.0, 90.0, 96.0, 93.0, 87.5, 96.0, 90.0, 93.0, 99.0, 102.0, 90.0, 93.0, 90.0, 82.0, 90.0, 93.0, 87.5, 79.5, 87.5, 99.0, 87.5, 90.0, 93.0, 99.0, 96.0, 93.0, 108.5, 90.0, 96.0, 90.0, 90.0, 82.0, 93.0, 93.0, 93.0, 99.0, 93.0, 96.0, 90.0, 90.0, 102.0, 84.5, 82.0, 87.5, 93.0, 93.0, 90.0, 82.0, 87.5, 87.5, 93.0, 82.0, 87.5, 96.0, 93.0, 87.5, 87.5, 84.5, 96.0, 93.0, 90.0, 90.0, 84.5, 90.0, 82.0, 87.5, 90.0, 99.0, 93.0, 87.5, 82.0, 87.5, 90.0, 90.0, 87.5, 102.0, 87.5, 93.0, 90.0]","[2.7284384486847557e-05, 0.08749555051326752, 0.08829405903816223, 0.09194274246692657, 0.09581099450588226, 0.08780036866664886, 0.09472936391830444, 0.1131843850016594, 0.11570361256599426, 0.11996952444314957, 0.1059320867061615, 0.10117511451244354, 0.10941706597805023, 0.12929852306842804, 0.12100803852081299, 0.1209695115685463, 0.12636823952198029, 0.11156526207923889, 0.13110189139842987, 0.1287447214126587, 0.11545196175575256, 0.12093213200569153, 0.12954501807689667, 0.11309263855218887, 0.15093465149402618, 0.145316481590271, 0.1325787752866745, 0.12492503970861435, 0.13158687949180603, 0.13038615882396698, 0.1307985782623291, 0.140760138630867, 0.14742343127727509, 0.13041090965270996, 0.1285831481218338, 0.12050659209489822, 0.14331097900867462, 0.1404278576374054, 0.13251063227653503, 0.1306961625814438, 0.1389533430337906, 0.14777128398418427, 0.13322430849075317, 0.12641939520835876, 0.12340553849935532, 0.1381283849477768, 0.15333187580108643, 0.14043192565441132, 0.13799186050891876, 0.1495560258626938, 0.1629026085138321, 0.12573771178722382, 0.12946735322475433, 0.16888587176799774, 0.16260495781898499, 0.15018513798713684, 0.15071038901805878, 0.13704198598861694, 0.14722754061222076, 0.1289501041173935, 0.1568203568458557, 0.1605084091424942, 0.1406802535057068, 0.15682174265384674, 0.13995479047298431, 0.14281801879405975, 0.14190693199634552, 0.15429966151714325, 0.14387045800685883, 0.14099346101284027, 0.14468640089035034, 0.13733206689357758, 0.15059629082679749, 0.1515558511018753, 0.129109188914299, 0.1311565339565277, 0.17460013926029205, 0.15699265897274017, 0.15062738955020905, 0.191072016954422, 0.1547974944114685, 0.14933434128761292, 0.16457980871200562, 0.16672135889530182, 0.1617816537618637, 0.150438129901886, 0.13832199573516846, 0.15209385752677917, 0.157701775431633, 0.17171771824359894, 0.17322425544261932, 0.16567258536815643, 0.1667030304670334, 0.17111250758171082, 0.13698440790176392, 0.15972718596458435, 0.14844664931297302, 0.17484445869922638, 0.16644440591335297, 0.18298524618148804, 0.17149294912815094, 0.15918895602226257, 0.14503337442874908, 0.16912268102169037, 0.1479114592075348, 0.14842315018177032, 0.17571482062339783, 0.15260890126228333, 0.14673438668251038, 0.16430702805519104, 0.1614573448896408, 0.15275560319423676, 0.17062990367412567, 0.1745661050081253, 0.16779077053070068, 0.19324891269207, 0.17549487948417664, 0.1761307567358017, 0.16804882884025574, 0.1845114380121231, 0.18432916700839996, 0.17042188346385956, 0.16417869925498962, 0.19666829705238342, 0.17328989505767822, 0.15806135535240173, 0.16530852019786835, 0.18657082319259644, 0.15552562475204468, 0.17712925374507904, 0.18579444289207458, 0.18607117235660553, 0.16293929517269135, 0.17197243869304657, 0.18005509674549103, 0.16921553015708923, 0.16788703203201294, 0.1954435408115387, 0.195408895611763, 0.16886666417121887, 0.1840474009513855, 0.18331868946552277, 0.1925494372844696, 0.1659119874238968, 0.16418969631195068, 0.18582306802272797, 0.14721105992794037, 0.18247295916080475, 0.15884794294834137, 0.18827959895133972, 0.188620463013649, 0.19665580987930298, 0.18801432847976685, 0.1833118200302124, 0.1789267212152481, 0.17505523562431335, 0.16598045825958252, 0.17010828852653503, 0.21656347811222076, 0.1723155379295349, 0.18851657211780548, 0.19588914513587952, 0.19546213746070862, 0.15368571877479553, 0.20742745697498322, 0.1773352026939392, 0.1833397001028061, 0.17286759614944458, 0.17702433466911316, 0.17845264077186584, 0.1693183332681656, 0.17935271561145782, 0.17526280879974365, 0.19398102164268494, 0.18675623834133148, 0.17470358312129974, 0.1697344332933426, 0.20406761765480042, 0.17996609210968018, 0.16847263276576996, 0.15615911781787872, 0.2114088386297226, 0.1802341341972351, 0.17367354035377502, 0.1851760447025299, 0.1945399045944214, 0.16553176939487457, 0.19017484784126282, 0.1727035492658615, 0.18967214226722717, 0.2125205546617508, 0.1738373190164566, 0.18144115805625916, 0.19780370593070984, 0.17304334044456482, 0.17922861874103546, 0.18436317145824432, 0.20145723223686218, 0.17333370447158813, 0.178339421749115, 0.18389829993247986, 0.20133259892463684, 0.18207435309886932, 0.19410698115825653, 0.1882294863462448, 0.20346522331237793, 0.17748644948005676, 0.19512994587421417, 0.1914115846157074, 0.20337507128715515, 0.16353486478328705, 0.16968487203121185, 0.19756223261356354, 0.19026005268096924, 0.18424731492996216, 0.1806183159351349, 0.19017182290554047, 0.19923044741153717, 0.19899967312812805, 0.1625795215368271, 0.18354275822639465, 0.1835525929927826, 0.19266808032989502, 0.19057634472846985, 0.21008357405662537, 0.21007324755191803, 0.19239892065525055, 0.2039363831281662, 0.2089143991470337, 0.1961548924446106, 0.1904451549053192, 0.19734320044517517, 0.1952027827501297, 0.1840384602546692, 0.1764899045228958, 0.17769090831279755, 0.19881895184516907, 0.17849397659301758, 0.1975204348564148, 0.1891007274389267, 0.2044551521539688, 0.15328267216682434, 0.20083601772785187, 0.18942321836948395, 0.19557346403598785, 0.18541017174720764, 0.20420145988464355, 0.20622789859771729, 0.18916189670562744, 0.17272627353668213, 0.190476194024086, 0.18613499402999878, 0.1631658673286438, 0.17374996840953827, 0.18560044467449188, 0.19980096817016602, 0.1619201898574829, 0.19719231128692627, 0.19857439398765564, 0.17579759657382965, 0.17154400050640106, 0.21205247938632965, 0.18876010179519653, 0.1845291703939438, 0.18280509114265442, 0.1791175752878189, 0.17443285882472992, 0.2081516981124878, 0.1988118439912796, 0.20555922389030457, 0.21494252979755402, 0.19689926505088806, 0.18270544707775116, 0.17278778553009033, 0.20577380061149597, 0.21690233051776886, 0.21293911337852478, 0.1800268590450287, 0.19519412517547607, 0.19345952570438385, 0.19676607847213745, 0.19325461983680725, 0.1902780830860138, 0.19350945949554443, 0.2132541984319687, 0.18044042587280273, 0.18071135878562927, 0.17874251306056976, 0.19123834371566772, 0.18168990314006805, 0.20857927203178406, 0.1926230639219284, 0.18521349132061005, 0.20187023282051086, 0.18385906517505646, 0.19326280057430267, 0.16866877675056458, 0.18346324563026428, 0.2033550888299942, 0.20058059692382812, 0.17548246681690216, 0.20760402083396912, 0.21085096895694733, 0.20477060973644257, 0.2127138078212738, 0.2177465707063675, 0.20661561191082, 0.19424401223659515, 0.20478680729866028, 0.19719575345516205, 0.1734786331653595, 0.21666713058948517, 0.16959621012210846, 0.2015225738286972, 0.19268345832824707, 0.20036739110946655, 0.1978166550397873, 0.20950087904930115, 0.20916812121868134, 0.18002252280712128, 0.19594061374664307, 0.2008727639913559, 0.20461371541023254, 0.19696304202079773, 0.1921113282442093, 0.22208592295646667, 0.16965211927890778, 0.1892157942056656, 0.17263905704021454, 0.19120396673679352, 0.19487616419792175, 0.19259683787822723, 0.1778910607099533, 0.23365843296051025, 0.19632671773433685, 0.20071987807750702, 0.22818809747695923, 0.1863875389099121, 0.19952532649040222, 0.20481696724891663, 0.21409571170806885, 0.195444256067276, 0.2126491516828537, 0.19725599884986877, 0.2352844774723053, 0.18524974584579468, 0.19441254436969757, 0.23823297023773193, 0.19152989983558655, 0.21763136982917786, 0.1900479644536972, 0.18138189613819122, 0.2221430093050003, 0.18964436650276184, 0.20931510627269745, 0.20632939040660858, 0.18354153633117676, 0.20649594068527222, 0.19260945916175842, 0.22610288858413696, 0.18982559442520142, 0.18734405934810638, 0.18753425776958466, 0.21935945749282837, 0.1909361183643341, 0.2139037400484085, 0.21350857615470886, 0.18512745201587677, 0.20314562320709229, 0.19224891066551208, 0.2008223533630371, 0.2175942361354828, 0.21188920736312866, 0.2048601657152176, 0.19447265565395355, 0.20063234865665436, 0.19169007241725922, 0.1863161325454712, 0.22063380479812622, 0.20585478842258453, 0.2230813205242157, 0.22226467728614807, 0.21296902000904083, 0.20440354943275452, 0.21176984906196594, 0.22417666018009186, 0.1888822466135025, 0.20629990100860596, 0.19932450354099274, 0.1911182701587677, 0.17578114569187164, 0.20141613483428955, 0.23491403460502625, 0.18893291056156158, 0.20277626812458038, 0.18886445462703705, 0.1810629814863205, 0.20349714159965515, 0.18355073034763336, 0.16338174045085907, 0.20639567077159882, 0.1955949068069458, 0.1949804276227951, 0.20412631332874298, 0.19528062641620636, 0.19807881116867065, 0.22090670466423035, 0.1930895447731018, 0.21106214821338654, 0.20700986683368683, 0.20075061917304993, 0.22901922464370728, 0.1823803037405014, 0.19616857171058655, 0.22447749972343445, 0.20834589004516602, 0.2108408808708191, 0.21495480835437775, 0.2093629240989685, 0.21354763209819794, 0.177494615316391, 0.23372717201709747, 0.2207432985305786, 0.21616366505622864, 0.21288177371025085, 0.21010024845600128, 0.2181551605463028, 0.20004405081272125, 0.21276770532131195, 0.18723566830158234, 0.20742568373680115, 0.2033265233039856, 0.22476765513420105, 0.18653889000415802, 0.20905350148677826, 0.19298388063907623, 0.2278326451778412, 0.18597394227981567, 0.19302326440811157, 0.19169582426548004, 0.18650707602500916, 0.230568528175354, 0.19309495389461517, 0.18954679369926453, 0.20649318397045135, 0.22447358071804047, 0.18056730926036835, 0.18514759838581085, 0.18810153007507324, 0.1919512301683426, 0.22055505216121674, 0.21741852164268494, 0.23869043588638306, 0.19875195622444153, 0.2284890115261078, 0.21294300258159637, 0.1968763768672943, 0.19023697078227997, 0.1890544444322586, 0.22155198454856873, 0.20422303676605225, 0.23338806629180908, 0.20027881860733032, 0.19951285421848297, 0.20559313893318176, 0.196098193526268, 0.23922832310199738, 0.2005913406610489, 0.2159334272146225, 0.20843027532100677, 0.20385825634002686, 0.21147345006465912, 0.19942094385623932, 0.20448079705238342, 0.2012280374765396, 0.20834475755691528, 0.20958395302295685, 0.19026440382003784, 0.197393998503685, 0.24461019039154053, 0.20237085223197937, 0.1815965473651886, 0.21791695058345795, 0.20958474278450012, 0.20162725448608398, 0.20376554131507874, 0.21701942384243011, 0.19828128814697266, 0.19872884452342987, 0.1973143070936203, 0.23042646050453186, 0.22073423862457275, 0.21197789907455444, 0.1869049370288849, 0.19252684712409973, 0.21591904759407043, 0.18029287457466125, 0.22466754913330078, 0.20583397150039673, 0.21314817667007446, 0.201615571975708, 0.22332383692264557, 0.22405679523944855, 0.1985102742910385, 0.21198232471942902, 0.2092762589454651, 0.19333681464195251, 0.2071695774793625, 0.19900400936603546, 0.21929994225502014, 0.2079213261604309, 0.2135046422481537, 0.21285445988178253, 0.1920166015625, 0.22821485996246338, 0.2426624596118927, 0.20084935426712036, 0.22390098869800568, 0.2179088145494461, 0.21397952735424042, 0.24338176846504211, 0.21111933887004852, 0.21535857021808624, 0.21683131158351898, 0.2237333357334137, 0.224687859416008, 0.18337342143058777, 0.23122002184391022, 0.18933939933776855, 0.21411313116550446, 0.23615750670433044, 0.20984546840190887, 0.20869234204292297, 0.2145584523677826, 0.21165090799331665, 0.2256290167570114, 0.19799792766571045, 0.18540175259113312, 0.20564845204353333, 0.21971364319324493, 0.1991906613111496, 0.21016782522201538, 0.23209121823310852, 0.19650152325630188, 0.23760458827018738, 0.22336901724338531, 0.1890033483505249, 0.22189220786094666, 0.190159872174263, 0.23356406390666962, 0.17556875944137573, 0.21688520908355713, 0.2029041349887848, 0.19632203876972198, 0.20418789982795715, 0.20129498839378357, 0.20327357947826385, 0.23559026420116425, 0.22973231971263885, 0.21047154068946838, 0.19144997000694275, 0.20339170098304749, 0.1951705366373062, 0.2150714099407196, 0.2090623676776886, 0.2264651209115982, 0.21850338578224182, 0.21255972981452942, 0.22061040997505188, 0.2073124498128891, 0.24063821136951447, 0.20733734965324402, 0.19352629780769348, 0.21790897846221924, 0.21050193905830383, 0.2015233188867569, 0.211349219083786, 0.2567770183086395, 0.2114005833864212, 0.20477072894573212, 0.2096458375453949, 0.21318170428276062, 0.22983331978321075, 0.2052803486585617, 0.23478783667087555, 0.2156224399805069, 0.21668773889541626, 0.2236487716436386, 0.19319887459278107, 0.1872129738330841, 0.21118029952049255, 0.20530593395233154, 0.21935537457466125, 0.18651820719242096, 0.21382154524326324, 0.2146274894475937, 0.21684721112251282, 0.19912034273147583, 0.20632107555866241, 0.20751288533210754, 0.2135465145111084, 0.22739547491073608, 0.19434311985969543, 0.21167325973510742, 0.2424250692129135, 0.22009947896003723, 0.20881357789039612, 0.21813906729221344, 0.21088844537734985, 0.197926327586174, 0.2108578234910965, 0.21913664042949677, 0.21015708148479462, 0.2072458267211914, 0.20731474459171295, 0.24189811944961548, 0.21244952082633972, 0.2005338817834854, 0.2191750705242157, 0.2115696519613266, 0.1975799947977066, 0.2265268862247467, 0.2232113480567932, 0.20940780639648438, 0.22484757006168365, 0.22242511808872223, 0.21187973022460938, 0.22088463604450226, 0.22841164469718933, 0.20742085576057434, 0.24066129326820374, 0.21769137680530548, 0.22799313068389893, 0.2141726315021515, 0.23273441195487976, 0.21601948142051697, 0.22732460498809814, 0.20341525971889496, 0.1823134869337082, 0.2265031933784485, 0.22621622681617737, 0.2192833125591278, 0.21274909377098083, 0.20837673544883728, 0.2194267362356186, 0.21664299070835114, 0.21185974776744843, 0.21555481851100922, 0.215572789311409, 0.21430915594100952, 0.22914785146713257, 0.2145163118839264, 0.2217104434967041, 0.22083504498004913, 0.2177467942237854, 0.22752831876277924, 0.1989363729953766, 0.21390564739704132, 0.23159843683242798, 0.22024935483932495, 0.21972520649433136, 0.230842724442482, 0.22731883823871613, 0.20532619953155518, 0.24022789299488068, 0.22151674330234528, 0.23098307847976685, 0.20556211471557617, 0.22468553483486176, 0.22020213305950165, 0.2190839946269989, 0.24464158713817596, 0.21802356839179993, 0.24126560986042023, 0.21870195865631104, 0.21321026980876923, 0.2061447948217392, 0.2543119788169861, 0.21898974478244781, 0.2442612200975418, 0.2389611005783081, 0.23517878353595734, 0.2183641940355301, 0.22913767397403717, 0.25304529070854187, 0.22893378138542175, 0.16361664235591888, 0.23728489875793457, 0.22051705420017242, 0.24173907935619354, 0.22509396076202393, 0.22347208857536316, 0.22202840447425842, 0.2285066694021225, 0.22826501727104187, 0.2352539598941803, 0.2316574901342392, 0.21052488684654236, 0.2162213921546936, 0.21670596301555634, 0.21667852997779846, 0.21331249177455902, 0.2277507781982422, 0.22150957584381104, 0.25215983390808105, 0.22544418275356293, 0.19898547232151031, 0.22987337410449982, 0.20720572769641876]","[1.9216357031837106e-05, 0.0886395126581192, 0.08937569707632065, 0.09338663518428802, 0.09901123493909836, 0.09113996475934982, 0.10015574842691422, 0.11637573689222336, 0.11984384804964066, 0.12258883565664291, 0.10816475749015808, 0.10476959496736526, 0.11194690316915512, 0.13367296755313873, 0.12801490724086761, 0.12526436150074005, 0.1323724389076233, 0.11445435881614685, 0.13626936078071594, 0.1319277435541153, 0.12359961122274399, 0.12414681166410446, 0.13446460664272308, 0.11885599792003632, 0.1579200029373169, 0.1523076891899109, 0.1387580931186676, 0.129995197057724, 0.13240692019462585, 0.13584375381469727, 0.1392078846693039, 0.14293402433395386, 0.15387721359729767, 0.13665705919265747, 0.13627280294895172, 0.12945905327796936, 0.1483382284641266, 0.1497925966978073, 0.13664071261882782, 0.13723795115947723, 0.14219284057617188, 0.1519220918416977, 0.13966050744056702, 0.13543128967285156, 0.13210521638393402, 0.14509057998657227, 0.1590331643819809, 0.14613091945648193, 0.14369715750217438, 0.15617553889751434, 0.1673492044210434, 0.1333179473876953, 0.13230715692043304, 0.18145664036273956, 0.17004959285259247, 0.1524563729763031, 0.15898647904396057, 0.14907154440879822, 0.15255996584892273, 0.13627979159355164, 0.16490086913108826, 0.16547398269176483, 0.1454230695962906, 0.1638985127210617, 0.14861954748630524, 0.14737246930599213, 0.14577125012874603, 0.16080208122730255, 0.15386243164539337, 0.14761190116405487, 0.15147559344768524, 0.14408032596111298, 0.15603356063365936, 0.1597600132226944, 0.13549093902111053, 0.1376354843378067, 0.1794753521680832, 0.16257131099700928, 0.15701764822006226, 0.200618714094162, 0.16127732396125793, 0.1553625613451004, 0.17581023275852203, 0.17810535430908203, 0.16872332990169525, 0.1592245250940323, 0.14805568754673004, 0.15906338393688202, 0.16362586617469788, 0.1780611276626587, 0.18250320851802826, 0.17291659116744995, 0.17270490527153015, 0.1794457733631134, 0.1463259756565094, 0.16874399781227112, 0.15857642889022827, 0.1852947324514389, 0.17593784630298615, 0.19212496280670166, 0.18465352058410645, 0.16678853332996368, 0.15295904874801636, 0.18185484409332275, 0.1564301699399948, 0.16082505881786346, 0.1871361881494522, 0.16091379523277283, 0.15467210114002228, 0.17458271980285645, 0.16606782376766205, 0.16193623840808868, 0.1822604238986969, 0.1821032166481018, 0.17675283551216125, 0.20391389727592468, 0.18619589507579803, 0.18780145049095154, 0.17642417550086975, 0.1945960521697998, 0.19140098989009857, 0.18254365026950836, 0.1727384477853775, 0.20689523220062256, 0.17976684868335724, 0.16848817467689514, 0.1751464456319809, 0.1961640566587448, 0.16346634924411774, 0.1828041821718216, 0.19917692244052887, 0.19419248402118683, 0.1714555025100708, 0.18131105601787567, 0.19113130867481232, 0.18057584762573242, 0.17909042537212372, 0.20823323726654053, 0.20496942102909088, 0.18147863447666168, 0.19533544778823853, 0.19266143441200256, 0.20444495975971222, 0.17362713813781738, 0.1732580065727234, 0.19473330676555634, 0.15941277146339417, 0.1933356374502182, 0.16803963482379913, 0.19858825206756592, 0.19827355444431305, 0.2046925127506256, 0.19847050309181213, 0.19618375599384308, 0.18959486484527588, 0.1811336725950241, 0.1765226423740387, 0.1806398332118988, 0.22586661577224731, 0.18518447875976562, 0.20315080881118774, 0.20726056396961212, 0.2052192986011505, 0.1655902862548828, 0.22038942575454712, 0.1896057426929474, 0.19340701401233673, 0.18320932984352112, 0.1856083869934082, 0.1892344206571579, 0.182429701089859, 0.1888570487499237, 0.186168372631073, 0.20596037805080414, 0.19765855371952057, 0.18486487865447998, 0.1850065290927887, 0.21485763788223267, 0.19051098823547363, 0.18051180243492126, 0.1710549145936966, 0.22416512668132782, 0.18810641765594482, 0.18688084185123444, 0.1990654319524765, 0.20751528441905975, 0.1768065094947815, 0.20268218219280243, 0.17734083533287048, 0.2001037746667862, 0.2264992594718933, 0.18432992696762085, 0.19096560776233673, 0.21097588539123535, 0.1869022399187088, 0.1880166083574295, 0.19278335571289062, 0.21033699810504913, 0.18656256794929504, 0.1949097216129303, 0.1984919309616089, 0.21212004125118256, 0.19058141112327576, 0.2060728371143341, 0.20232535898685455, 0.21973249316215515, 0.1889512538909912, 0.20471367239952087, 0.2011103481054306, 0.21685218811035156, 0.17123407125473022, 0.18068259954452515, 0.20922626554965973, 0.20209817588329315, 0.19685085117816925, 0.19530437886714935, 0.20477014780044556, 0.20915886759757996, 0.21071353554725647, 0.1736740916967392, 0.19851231575012207, 0.19672824442386627, 0.2048734575510025, 0.20067712664604187, 0.22267743945121765, 0.22430625557899475, 0.2058427631855011, 0.21562860906124115, 0.21890364587306976, 0.20386336743831635, 0.20468385517597198, 0.21275655925273895, 0.20872759819030762, 0.19973838329315186, 0.18600088357925415, 0.18554280698299408, 0.2102329581975937, 0.19070975482463837, 0.2123822271823883, 0.2038922756910324, 0.2177371233701706, 0.16256053745746613, 0.2129829227924347, 0.20396965742111206, 0.21174213290214539, 0.1996886283159256, 0.22077523171901703, 0.21644288301467896, 0.2012733519077301, 0.1879456490278244, 0.20320165157318115, 0.20061077177524567, 0.17476660013198853, 0.18482375144958496, 0.20332565903663635, 0.21353454887866974, 0.17166978120803833, 0.20922189950942993, 0.21125082671642303, 0.18297463655471802, 0.18888889253139496, 0.22241666913032532, 0.20286428928375244, 0.19956612586975098, 0.1965419054031372, 0.1898612380027771, 0.18591418862342834, 0.22047744691371918, 0.21450933814048767, 0.219386488199234, 0.23010312020778656, 0.21185870468616486, 0.19584277272224426, 0.18440479040145874, 0.21927599608898163, 0.23002421855926514, 0.22434578835964203, 0.18930135667324066, 0.20796366035938263, 0.20731309056282043, 0.21077695488929749, 0.2015262395143509, 0.20110690593719482, 0.20579415559768677, 0.23174689710140228, 0.19128645956516266, 0.19532495737075806, 0.1900826394557953, 0.2051730751991272, 0.1915302723646164, 0.223649799823761, 0.20366673171520233, 0.19323095679283142, 0.21704457700252533, 0.19419175386428833, 0.2055460512638092, 0.1790500283241272, 0.1934107393026352, 0.21672624349594116, 0.21416345238685608, 0.1881798952817917, 0.22587594389915466, 0.227634459733963, 0.21898524463176727, 0.22534751892089844, 0.23625920712947845, 0.21986360847949982, 0.20683225989341736, 0.2126583755016327, 0.2086733877658844, 0.18672509491443634, 0.2275802344083786, 0.18126116693019867, 0.21481111645698547, 0.20830769836902618, 0.2214878499507904, 0.2066502869129181, 0.22016017138957977, 0.2261045277118683, 0.19318880140781403, 0.209598571062088, 0.2175593078136444, 0.21425962448120117, 0.2035677134990692, 0.20324186980724335, 0.23980309069156647, 0.18321315944194794, 0.20291583240032196, 0.18483467400074005, 0.2053760141134262, 0.2080003023147583, 0.20228412747383118, 0.19139371812343597, 0.24820226430892944, 0.20822128653526306, 0.21491970121860504, 0.23970720171928406, 0.19742737710475922, 0.2087668925523758, 0.21817134320735931, 0.22837810218334198, 0.20991690456867218, 0.22862796485424042, 0.21277698874473572, 0.252066433429718, 0.1971457600593567, 0.20889179408550262, 0.25354087352752686, 0.20473363995552063, 0.23465800285339355, 0.20861148834228516, 0.19878141582012177, 0.2411910444498062, 0.20380058884620667, 0.22528307139873505, 0.21831147372722626, 0.19685296714305878, 0.2222457081079483, 0.2010229080915451, 0.2400476485490799, 0.20407377183437347, 0.2014903873205185, 0.19874297082424164, 0.23325897753238678, 0.2014792114496231, 0.229185089468956, 0.2263069897890091, 0.19432426989078522, 0.21004995703697205, 0.20520998537540436, 0.2157164216041565, 0.22686021029949188, 0.2278030812740326, 0.213758647441864, 0.20995250344276428, 0.2192336618900299, 0.2031000852584839, 0.20037288963794708, 0.23447071015834808, 0.22147507965564728, 0.2387523204088211, 0.2385580688714981, 0.22456085681915283, 0.2211250364780426, 0.2219572216272354, 0.23414072394371033, 0.20115384459495544, 0.22270750999450684, 0.21202391386032104, 0.19581320881843567, 0.18651404976844788, 0.21901065111160278, 0.2475948929786682, 0.20094700157642365, 0.2143571525812149, 0.20266738533973694, 0.19316259026527405, 0.21792902052402496, 0.19755388796329498, 0.17320607602596283, 0.2213006168603897, 0.20412401854991913, 0.2107144296169281, 0.2187986522912979, 0.2122803032398224, 0.2162104994058609, 0.23395667970180511, 0.20890845358371735, 0.2220684438943863, 0.22580769658088684, 0.21295922994613647, 0.24535194039344788, 0.19702531397342682, 0.21100670099258423, 0.23863308131694794, 0.2211693823337555, 0.22619299590587616, 0.23515279591083527, 0.22760318219661713, 0.22677937150001526, 0.19041208922863007, 0.24332955479621887, 0.23402579128742218, 0.22906143963336945, 0.2266174703836441, 0.2207934558391571, 0.23362524807453156, 0.21658623218536377, 0.22556015849113464, 0.20124046504497528, 0.22490344941616058, 0.21940061450004578, 0.23713122308254242, 0.19819197058677673, 0.22192302346229553, 0.2055123895406723, 0.24256740510463715, 0.20090772211551666, 0.21059614419937134, 0.20634981989860535, 0.20081809163093567, 0.2513830363750458, 0.2082444429397583, 0.20470063388347626, 0.2209058552980423, 0.2371518760919571, 0.19286221265792847, 0.19817465543746948, 0.20180311799049377, 0.20012295246124268, 0.23253533244132996, 0.23234497010707855, 0.25422167778015137, 0.21171672642230988, 0.2413700371980667, 0.2245357483625412, 0.20894430577754974, 0.1995542049407959, 0.20699797570705414, 0.2375158667564392, 0.2181524634361267, 0.2485092133283615, 0.21607469022274017, 0.21235327422618866, 0.22098055481910706, 0.21155326068401337, 0.250110387802124, 0.2161663919687271, 0.23079587519168854, 0.22525066137313843, 0.21959517896175385, 0.2259322553873062, 0.21242067217826843, 0.2222328931093216, 0.22241856157779694, 0.22705945372581482, 0.22541597485542297, 0.2031201869249344, 0.21254368126392365, 0.2623259723186493, 0.21976818144321442, 0.1943974494934082, 0.23160746693611145, 0.223968043923378, 0.2138422727584839, 0.216716006398201, 0.23352935910224915, 0.21204380691051483, 0.21284614503383636, 0.21138696372509003, 0.24642829596996307, 0.23429329693317413, 0.22403857111930847, 0.19995003938674927, 0.20784486830234528, 0.23038507997989655, 0.19977298378944397, 0.23703020811080933, 0.22257253527641296, 0.2261732965707779, 0.2134818583726883, 0.23768429458141327, 0.23799999058246613, 0.21477451920509338, 0.2273583710193634, 0.22584745287895203, 0.20324453711509705, 0.21870431303977966, 0.21254710853099823, 0.23624800145626068, 0.221997931599617, 0.2253713309764862, 0.22793792188167572, 0.20190884172916412, 0.24478736519813538, 0.25942879915237427, 0.21770380437374115, 0.23793235421180725, 0.23901236057281494, 0.22947320342063904, 0.25706714391708374, 0.22082765400409698, 0.23350058495998383, 0.23070266842842102, 0.23403559625148773, 0.24157746136188507, 0.1991545706987381, 0.24834628403186798, 0.20568303763866425, 0.22625494003295898, 0.25333282351493835, 0.22438105940818787, 0.22173303365707397, 0.23048505187034607, 0.22692854702472687, 0.23832881450653076, 0.21748577058315277, 0.20027709007263184, 0.21957167983055115, 0.2384028285741806, 0.21325083076953888, 0.22718270123004913, 0.25034576654434204, 0.2195112556219101, 0.25126922130584717, 0.23854921758174896, 0.20106856524944305, 0.234305277466774, 0.20612771809101105, 0.24928933382034302, 0.18651992082595825, 0.2340339571237564, 0.2177823781967163, 0.2122890055179596, 0.2183346450328827, 0.2141181081533432, 0.21918070316314697, 0.2527964413166046, 0.243211030960083, 0.22550980746746063, 0.20343805849552155, 0.21552403271198273, 0.2119615375995636, 0.23391149938106537, 0.2208193987607956, 0.24259242415428162, 0.23529978096485138, 0.2272351086139679, 0.23504430055618286, 0.22349415719509125, 0.2572394907474518, 0.21587307751178741, 0.21076810359954834, 0.23387111723423004, 0.22910377383232117, 0.21627134084701538, 0.21982203423976898, 0.2714175879955292, 0.22720274329185486, 0.22005121409893036, 0.2238616645336151, 0.22819502651691437, 0.24824999272823334, 0.22049301862716675, 0.2509996294975281, 0.22815412282943726, 0.2334672212600708, 0.23654797673225403, 0.20609159767627716, 0.20066137611865997, 0.2276974469423294, 0.21674072742462158, 0.23543769121170044, 0.19814711809158325, 0.22820442914962769, 0.2304026186466217, 0.2381364107131958, 0.21594619750976562, 0.22195951640605927, 0.22025355696678162, 0.23045583069324493, 0.2434297651052475, 0.2059943825006485, 0.2250928282737732, 0.2632863223552704, 0.23306868970394135, 0.2223290354013443, 0.23286618292331696, 0.22985343635082245, 0.21221956610679626, 0.2198108434677124, 0.2374780923128128, 0.22579404711723328, 0.21962518990039825, 0.21955816447734833, 0.260016530752182, 0.2283313274383545, 0.220550075173378, 0.23615753650665283, 0.2281608283519745, 0.21170350909233093, 0.246298685669899, 0.23889689147472382, 0.22613508999347687, 0.238995760679245, 0.2365303933620453, 0.227309450507164, 0.2333102524280548, 0.2420002669095993, 0.2212875485420227, 0.2611267864704132, 0.23345395922660828, 0.2448013871908188, 0.23081356287002563, 0.24670805037021637, 0.23215694725513458, 0.24232928454875946, 0.2197548896074295, 0.19963864982128143, 0.24219171702861786, 0.23965908586978912, 0.23989006876945496, 0.2220192700624466, 0.22240173816680908, 0.2370583713054657, 0.2271600216627121, 0.22812481224536896, 0.22770869731903076, 0.23199260234832764, 0.23052223026752472, 0.24786685407161713, 0.22849074006080627, 0.2351946234703064, 0.2403746396303177, 0.2341783046722412, 0.2445191591978073, 0.21717900037765503, 0.22786879539489746, 0.24696418642997742, 0.23437108099460602, 0.23425208032131195, 0.24806931614875793, 0.2453899383544922, 0.21753846108913422, 0.2583562135696411, 0.2375921905040741, 0.24123607575893402, 0.22268147766590118, 0.23845043778419495, 0.23397299647331238, 0.23306362330913544, 0.2639673948287964, 0.2373008280992508, 0.2542291581630707, 0.23845873773097992, 0.2305903136730194, 0.22110003232955933, 0.2716462016105652, 0.23762109875679016, 0.2593076825141907, 0.2550131678581238, 0.24907200038433075, 0.24051533639431, 0.24886634945869446, 0.27524733543395996, 0.24348028004169464, 0.17474906146526337, 0.25219228863716125, 0.23632100224494934, 0.25854745507240295, 0.24411232769489288, 0.23872403800487518, 0.23810714483261108, 0.2433791309595108, 0.24424147605895996, 0.25001922249794006, 0.2516758441925049, 0.22363315522670746, 0.23334357142448425, 0.2355157434940338, 0.23404623568058014, 0.23121197521686554, 0.24190323054790497, 0.23816938698291779, 0.2706879675388336, 0.24684566259384155, 0.2136286497116089, 0.2478438764810562, 0.22864162921905518]","[2.2069209080655128e-05, 0.10557909309864044, 0.10668255388736725, 0.1170109435915947, 0.11800406128168106, 0.11308262497186661, 0.12656691670417786, 0.14216984808444977, 0.14038224518299103, 0.14653955399990082, 0.1324373185634613, 0.12857520580291748, 0.13325388729572296, 0.16655631363391876, 0.1543741226196289, 0.153248593211174, 0.15967072546482086, 0.14799611270427704, 0.1670418381690979, 0.1649894118309021, 0.1536458283662796, 0.15892037749290466, 0.16693149507045746, 0.15108580887317657, 0.18697033822536469, 0.1865730881690979, 0.17684057354927063, 0.16298110783100128, 0.17083774507045746, 0.1675935685634613, 0.17030808329582214, 0.18145303428173065, 0.18626412749290466, 0.16902807354927063, 0.1713012009859085, 0.16174523532390594, 0.182688906788826, 0.18500618636608124, 0.16637976467609406, 0.1690722107887268, 0.17723782360553741, 0.1869262009859085, 0.1711025834083557, 0.16905014216899872, 0.1655411422252655, 0.17993025481700897, 0.19639389216899872, 0.18429996073246002, 0.18068061769008636, 0.19564354419708252, 0.20177878439426422, 0.17269155383110046, 0.17081567645072937, 0.21250441670417786, 0.21062852442264557, 0.19032485783100128, 0.19725459814071655, 0.19147245585918427, 0.19239936769008636, 0.17370674014091492, 0.20158015191555023, 0.20992231369018555, 0.1906559020280838, 0.20378707349300385, 0.19350282847881317, 0.1858227401971817, 0.17979784309864044, 0.2057071030139923, 0.1917593628168106, 0.19140625, 0.1873234510421753, 0.18738965690135956, 0.19796080887317657, 0.19676907360553741, 0.17646539211273193, 0.1735743284225464, 0.2272907793521881, 0.20398570597171783, 0.19562147557735443, 0.23724399507045746, 0.1988435685634613, 0.19612905383110046, 0.21506443619728088, 0.21958863735198975, 0.2118864804506302, 0.20383121073246002, 0.18796345591545105, 0.20082980394363403, 0.2074064314365387, 0.21875, 0.22777630388736725, 0.21625618636608124, 0.2189265489578247, 0.2254590392112732, 0.19167107343673706, 0.21398304402828217, 0.20495674014091492, 0.23353637754917145, 0.22329625487327576, 0.2336025834083557, 0.22462041676044464, 0.2183748185634613, 0.19851253926753998, 0.2280411422252655, 0.20286017656326294, 0.19802701473236084, 0.22848251461982727, 0.20451536774635315, 0.19612905383110046, 0.21870586276054382, 0.21212923526763916, 0.20299258828163147, 0.22687147557735443, 0.228614941239357, 0.22607697546482086, 0.25158897042274475, 0.2321239411830902, 0.23406602442264557, 0.22195003926753998, 0.23788399994373322, 0.24251854419708252, 0.21914725005626678, 0.2133430391550064, 0.2494262009859085, 0.23040254414081573, 0.21508650481700897, 0.21883827447891235, 0.24512270092964172, 0.20632503926753998, 0.23024806380271912, 0.24278336763381958, 0.24055437743663788, 0.21824240684509277, 0.2287694215774536, 0.240135058760643, 0.2258121520280838, 0.22987288236618042, 0.2523614168167114, 0.24289371073246002, 0.22309763729572296, 0.24415166676044464, 0.24280543625354767, 0.2538621127605438, 0.2234286665916443, 0.22232520580291748, 0.24454890191555023, 0.20956921577453613, 0.2410840392112732, 0.2105623185634613, 0.2447696030139923, 0.24966895580291748, 0.24916137754917145, 0.24401924014091492, 0.2492717206478119, 0.2356770783662796, 0.23580950498580933, 0.2200520783662796, 0.22894597053527832, 0.2732830047607422, 0.23982609808444977, 0.249095156788826, 0.2563118040561676, 0.256002813577652, 0.21109198033809662, 0.277145117521286, 0.2379281371831894, 0.24267302453517914, 0.23448534309864044, 0.23598605394363403, 0.24002471566200256, 0.2394067794084549, 0.2431144118309021, 0.23433086276054382, 0.2526482939720154, 0.24487994611263275, 0.22982874512672424, 0.23728813230991364, 0.26889124512672424, 0.24397510290145874, 0.2326756715774536, 0.22126589715480804, 0.27855756878852844, 0.2383033186197281, 0.2405102401971817, 0.24545374512672424, 0.25845250487327576, 0.22459834814071655, 0.24624823033809662, 0.2230314314365387, 0.2592470049858093, 0.27765271067619324, 0.2336025834083557, 0.2444385588169098, 0.25439175963401794, 0.23490466177463531, 0.24432821571826935, 0.23909780383110046, 0.25900423526763916, 0.2407088577747345, 0.24187852442264557, 0.2503310441970825, 0.2689353823661804, 0.24624823033809662, 0.25214070081710815, 0.2503310441970825, 0.2801244854927063, 0.24130472540855408, 0.2531558871269226, 0.2488965392112732, 0.2606373727321625, 0.22389212250709534, 0.23468397557735443, 0.25882768630981445, 0.25695180892944336, 0.24679996073246002, 0.24362200498580933, 0.255252480506897, 0.2711864411830902, 0.2569076716899872, 0.22239142656326294, 0.24783721566200256, 0.24728548526763916, 0.2505075931549072, 0.24770480394363403, 0.2760196030139923, 0.284957617521286, 0.2533986568450928, 0.273636132478714, 0.2667284607887268, 0.2590925097465515, 0.2538621127605438, 0.2626456618309021, 0.25825387239456177, 0.2520082890987396, 0.23563294112682343, 0.23887711763381958, 0.26853814721107483, 0.2433130294084549, 0.263815313577652, 0.256664901971817, 0.2771892547607422, 0.21078301966190338, 0.27109816670417786, 0.25366348028182983, 0.2538621127605438, 0.2552083432674408, 0.26425671577453613, 0.2671036422252655, 0.25324416160583496, 0.2390536665916443, 0.25136828422546387, 0.2559807598590851, 0.2274894118309021, 0.23669226467609406, 0.2545021176338196, 0.2726650834083557, 0.22629767656326294, 0.25750353932380676, 0.2630428969860077, 0.24240818619728088, 0.23795020580291748, 0.2827065587043762, 0.25975459814071655, 0.24717514216899872, 0.25328829884529114, 0.24344544112682343, 0.2351474165916443, 0.28281691670417786, 0.27039194107055664, 0.2760196030139923, 0.27983757853507996, 0.2613215148448944, 0.24677789211273193, 0.24732962250709534, 0.27390095591545105, 0.28564175963401794, 0.2823755443096161, 0.24057644605636597, 0.26125529408454895, 0.25452420115470886, 0.2628222107887268, 0.25675317645072937, 0.2537297010421753, 0.2641022205352783, 0.2877383530139923, 0.24843308329582214, 0.25564971566200256, 0.24649100005626678, 0.2618952989578247, 0.24675582349300385, 0.2732609510421753, 0.25825387239456177, 0.2487199902534485, 0.2711864411830902, 0.2477489411830902, 0.25659868121147156, 0.2373543381690979, 0.2425406128168106, 0.278292715549469, 0.2652498185634613, 0.24039989709854126, 0.27484992146492004, 0.28116172552108765, 0.2706126272678375, 0.27988171577453613, 0.29566118121147156, 0.2745630443096161, 0.2650732696056366, 0.275997519493103, 0.25979873538017273, 0.2449902892112732, 0.287716269493103, 0.2273349165916443, 0.27597546577453613, 0.2647201716899872, 0.27449682354927063, 0.2600194215774536, 0.2672801911830902, 0.28153690695762634, 0.24262888729572296, 0.2661767303943634, 0.2661325931549072, 0.2704360783100128, 0.26458775997161865, 0.25847458839416504, 0.29749295115470886, 0.23395568132400513, 0.2624470293521881, 0.23984816670417786, 0.26624295115470886, 0.26363876461982727, 0.2635725736618042, 0.24298198521137238, 0.3015316128730774, 0.26147598028182983, 0.2582318186759949, 0.29012182354927063, 0.249095156788826, 0.26275599002838135, 0.28204450011253357, 0.28654661774635315, 0.2650512158870697, 0.290210098028183, 0.2695753872394562, 0.306784063577652, 0.2503751814365387, 0.26052701473236084, 0.30647510290145874, 0.2526482939720154, 0.2935425639152527, 0.2658015489578247, 0.25328829884529114, 0.2913135588169098, 0.25734904408454895, 0.2794182598590851, 0.27427613735198975, 0.2530234754085541, 0.2721574902534485, 0.2585628628730774, 0.29861846566200256, 0.2616746127605438, 0.2520082890987396, 0.24752825498580933, 0.2927480638027191, 0.25774627923965454, 0.28449416160583496, 0.28449416160583496, 0.25141242146492004, 0.26836156845092773, 0.25452420115470886, 0.266573965549469, 0.27983757853507996, 0.2895700931549072, 0.2670815587043762, 0.2613877058029175, 0.2741657793521881, 0.2561793923377991, 0.2587394118309021, 0.2957715392112732, 0.2774982452392578, 0.2949770390987396, 0.29992055892944336, 0.2819562256336212, 0.2801244854927063, 0.2830817401409149, 0.2968529164791107, 0.25384002923965454, 0.27780720591545105, 0.2652056813240051, 0.2553628087043762, 0.24289371073246002, 0.273238867521286, 0.3067620098590851, 0.25860700011253357, 0.26441118121147156, 0.2551862597465515, 0.251346230506897, 0.27021539211273193, 0.2546786665916443, 0.22128796577453613, 0.28008031845092773, 0.26644155383110046, 0.26403602957725525, 0.27537959814071655, 0.2621380686759949, 0.2690236568450928, 0.2940501272678375, 0.2680305540561676, 0.2820224165916443, 0.28564175963401794, 0.2701050639152527, 0.2968308627605438, 0.2472192794084549, 0.27206921577453613, 0.29844191670417786, 0.2853107452392578, 0.2803672254085541, 0.29228460788726807, 0.2855093479156494, 0.29098251461982727, 0.24172404408454895, 0.3089247941970825, 0.29398393630981445, 0.2850017547607422, 0.2772996127605438, 0.27460718154907227, 0.28692179918289185, 0.26871469616889954, 0.27021539211273193, 0.2565324902534485, 0.28125, 0.27617406845092773, 0.2914459705352783, 0.25251588225364685, 0.27317267656326294, 0.26350635290145874, 0.2993026077747345, 0.24986758828163147, 0.2691340148448944, 0.25346487760543823, 0.2531558871269226, 0.3095206618309021, 0.2656029164791107, 0.26233670115470886, 0.27906516194343567, 0.2963453531265259, 0.252957284450531, 0.2628442943096161, 0.26425671577453613, 0.24697652459144592, 0.29883915185928345, 0.28769421577453613, 0.3089689314365387, 0.27423200011253357, 0.2916446030139923, 0.281448632478714, 0.26626500487327576, 0.25701799988746643, 0.2635504901409149, 0.29495498538017273, 0.27502647042274475, 0.3051068186759949, 0.2717823088169098, 0.2740333676338196, 0.2855314314365387, 0.26085805892944336, 0.31426554918289185, 0.27522510290145874, 0.28842249512672424, 0.28634798526763916, 0.2873852550983429, 0.28343483805656433, 0.2729299068450928, 0.28491348028182983, 0.28453829884529114, 0.2821769118309021, 0.2860390245914459, 0.256863534450531, 0.27535751461982727, 0.3234904706478119, 0.28169137239456177, 0.24675582349300385, 0.2927922010421753, 0.27926376461982727, 0.2771672010421753, 0.27425405383110046, 0.29358670115470886, 0.2675008773803711, 0.26681673526763916, 0.2665077745914459, 0.3115951716899872, 0.3022598922252655, 0.2747395932674408, 0.263815313577652, 0.26403602957725525, 0.29062941670417786, 0.25880560278892517, 0.2983977794647217, 0.2724664509296417, 0.2867893576622009, 0.2753133773803711, 0.2988832890987396, 0.29711776971817017, 0.27054643630981445, 0.29045286774635315, 0.2834790050983429, 0.26438912749290466, 0.2766375243663788, 0.27220162749290466, 0.29043078422546387, 0.27484992146492004, 0.28709834814071655, 0.2846266031265259, 0.26608845591545105, 0.30742406845092773, 0.31163930892944336, 0.26754501461982727, 0.2913356423377991, 0.30698269605636597, 0.28506797552108765, 0.3173331618309021, 0.2750706076622009, 0.2933659851551056, 0.28169137239456177, 0.2953743040561676, 0.30256885290145874, 0.2565545439720154, 0.3067178726196289, 0.2575918138027191, 0.2885549068450928, 0.3194076716899872, 0.29160046577453613, 0.27798375487327576, 0.2886652648448944, 0.2936749756336212, 0.2946460247039795, 0.2885107696056366, 0.257613867521286, 0.2794182598590851, 0.29228460788726807, 0.2670595049858093, 0.28226518630981445, 0.3078875243663788, 0.27734375, 0.30923375487327576, 0.29718396067619324, 0.2572166323661804, 0.3041799068450928, 0.2596442401409149, 0.31689175963401794, 0.24022334814071655, 0.29550671577453613, 0.2799699902534485, 0.2682291567325592, 0.27504855394363403, 0.2786237597465515, 0.2778954803943634, 0.31389036774635315, 0.3033633530139923, 0.2828831076622009, 0.2572166323661804, 0.2727092206478119, 0.2687808871269226, 0.2925494313240051, 0.27628442645072937, 0.30865997076034546, 0.29398393630981445, 0.2815810441970825, 0.298022598028183, 0.2881797254085541, 0.31391242146492004, 0.2651174068450928, 0.2682732939720154, 0.29903778433799744, 0.29215219616889954, 0.28063204884529114, 0.27615201473236084, 0.32055526971817017, 0.2885549068450928, 0.2853327989578247, 0.28414106369018555, 0.29067355394363403, 0.3059454560279846, 0.2754899263381958, 0.31812766194343567, 0.28862112760543823, 0.2939397990703583, 0.28875353932380676, 0.2663532793521881, 0.2598870098590851, 0.28992319107055664, 0.2776968479156494, 0.2972722351551056, 0.2654705047607422, 0.2842514216899872, 0.2924391031265259, 0.2916887402534485, 0.2721354067325592, 0.28343483805656433, 0.2777409851551056, 0.2903204560279846, 0.3046875, 0.26275599002838135, 0.28639212250709534, 0.32006973028182983, 0.2969191372394562, 0.2894376814365387, 0.2944694459438324, 0.28915077447891235, 0.2693547010421753, 0.28281691670417786, 0.30122262239456177, 0.2909163236618042, 0.27818238735198975, 0.2819562256336212, 0.32894155383110046, 0.28804731369018555, 0.2836776077747345, 0.29656603932380676, 0.29062941670417786, 0.27813825011253357, 0.31594279408454895, 0.3006047010421753, 0.2892390489578247, 0.2962791323661804, 0.3004281520843506, 0.2836776077747345, 0.29793432354927063, 0.3069606423377991, 0.2764609754085541, 0.3231152892112732, 0.29469016194343567, 0.30998411774635315, 0.2823313772678375, 0.30996203422546387, 0.2933659851551056, 0.29848605394363403, 0.28601694107055664, 0.2572166323661804, 0.29954537749290466, 0.2950432598590851, 0.3026129901409149, 0.28317001461982727, 0.28749558329582214, 0.29978814721107483, 0.285354882478714, 0.2933439314365387, 0.2886652648448944, 0.2944032549858093, 0.2897907793521881, 0.3068944215774536, 0.2853769361972809, 0.29568326473236084, 0.3020392060279846, 0.28930526971817017, 0.30890271067619324, 0.2702816128730774, 0.2970956861972809, 0.3108006715774536, 0.2925715148448944, 0.28897422552108765, 0.31146275997161865, 0.3027895390987396, 0.27855756878852844, 0.3164503872394562, 0.2966984510421753, 0.3104917109012604, 0.28707626461982727, 0.2916887402534485, 0.2987729609012604, 0.298022598028183, 0.32733049988746643, 0.2968529164791107, 0.323071151971817, 0.29546257853507996, 0.292770117521286, 0.2878045439720154, 0.3415430784225464, 0.3071592450141907, 0.32112905383110046, 0.31144067645072937, 0.31947386264801025, 0.302877813577652, 0.3024805784225464, 0.34046170115470886, 0.3000308871269226, 0.23452948033809662, 0.30978548526763916, 0.2936749756336212, 0.31519243121147156, 0.3096751272678375, 0.2987508773803711, 0.3028336763381958, 0.3015095293521881, 0.3052392303943634, 0.31722280383110046, 0.3168255686759949, 0.2832582890987396, 0.29678672552108765, 0.29753708839416504, 0.3022598922252655, 0.27966102957725525, 0.30497440695762634, 0.29248324036598206, 0.3344147205352783, 0.3065633773803711, 0.2694871127605438, 0.31016066670417786, 0.28987905383110046]","[0.0, 0.03103404864668846, 0.030863938853144646, 0.03142243251204491, 0.034041475504636765, 0.02979515679180622, 0.03573077917098999, 0.03564964607357979, 0.03884353116154671, 0.04081977531313896, 0.036102887243032455, 0.03421688824892044, 0.03731156885623932, 0.044634655117988586, 0.043701257556676865, 0.04155529662966728, 0.04314056783914566, 0.03826892375946045, 0.04456028342247009, 0.045425813645124435, 0.0404793843626976, 0.038649581372737885, 0.045799288898706436, 0.040546219795942307, 0.05101610720157623, 0.0508417934179306, 0.04630439355969429, 0.042646437883377075, 0.04369600489735603, 0.04556173086166382, 0.04551968351006508, 0.04763307049870491, 0.050680629909038544, 0.042484886944293976, 0.04351106658577919, 0.04079229757189751, 0.05091787502169609, 0.050040047615766525, 0.04509206488728523, 0.0441470742225647, 0.046668071299791336, 0.048741474747657776, 0.047416336834430695, 0.04233728349208832, 0.042678866535425186, 0.046026669442653656, 0.050063103437423706, 0.04560328647494316, 0.04667741432785988, 0.050902705639600754, 0.05309956893324852, 0.040854889899492264, 0.041727397590875626, 0.06182249262928963, 0.0518130362033844, 0.0500253289937973, 0.04979845508933067, 0.04831039905548096, 0.04868520423769951, 0.045192066580057144, 0.0513593889772892, 0.05094213783740997, 0.04442308470606804, 0.055590175092220306, 0.051778703927993774, 0.046497028321027756, 0.045936837792396545, 0.05031735077500343, 0.05016012862324715, 0.04538189619779587, 0.04827994853258133, 0.04522506520152092, 0.05024852603673935, 0.04978906363248825, 0.04230982065200806, 0.04159192368388176, 0.054444026201963425, 0.05160723254084587, 0.050345174968242645, 0.06290946155786514, 0.05106684938073158, 0.05050504952669144, 0.05617082118988037, 0.05615197494626045, 0.056927185505628586, 0.04936298727989197, 0.04720110818743706, 0.04936661198735237, 0.05216626077890396, 0.05440020188689232, 0.05936818942427635, 0.052829232066869736, 0.053932301700115204, 0.055365800857543945, 0.04830276593565941, 0.05408663675189018, 0.04816581681370735, 0.058976948261260986, 0.058214690536260605, 0.058158520609140396, 0.057706721127033234, 0.05162579566240311, 0.048339761793613434, 0.05524560436606407, 0.04610048979520798, 0.048915088176727295, 0.056935470551252365, 0.04714755341410637, 0.047368861734867096, 0.05401899665594101, 0.05278468504548073, 0.049439601600170135, 0.05617135018110275, 0.055849820375442505, 0.05487526208162308, 0.062273506075143814, 0.05655333772301674, 0.05729951709508896, 0.05109091475605965, 0.05658005177974701, 0.06026444956660271, 0.055088117718696594, 0.0548793226480484, 0.06480474770069122, 0.054334916174411774, 0.047703180462121964, 0.05356919392943382, 0.05715491995215416, 0.0486922524869442, 0.05567416176199913, 0.06071772426366806, 0.059799399226903915, 0.0506829172372818, 0.05490609630942345, 0.056072406470775604, 0.05523690581321716, 0.0544254370033741, 0.06182033568620682, 0.06034483015537262, 0.05645330622792244, 0.06131540238857269, 0.05694884434342384, 0.06109078601002693, 0.05362226441502571, 0.051379237323999405, 0.05694099888205528, 0.050385989248752594, 0.0576544888317585, 0.04864954575896263, 0.06093612313270569, 0.055910006165504456, 0.06228272244334221, 0.05906287953257561, 0.058703526854515076, 0.05728134512901306, 0.055557891726493835, 0.05537024885416031, 0.05278443917632103, 0.0697917565703392, 0.05443371459841728, 0.06122621148824692, 0.05913841724395752, 0.05927349999547005, 0.04837768152356148, 0.06650173664093018, 0.056691724807024, 0.06182048097252846, 0.05458797886967659, 0.0562979094684124, 0.05662762373685837, 0.05310148373246193, 0.05499769002199173, 0.05506283789873123, 0.06446991115808487, 0.057880230247974396, 0.05490228533744812, 0.05529702827334404, 0.06346426904201508, 0.05413452163338661, 0.05762897804379463, 0.05278311297297478, 0.0661008432507515, 0.05771341547369957, 0.05591775104403496, 0.06234340742230415, 0.06042105332016945, 0.05270661041140556, 0.058724481612443924, 0.051391590386629105, 0.057146456092596054, 0.06533956527709961, 0.05538890138268471, 0.056217122822999954, 0.06368201225996017, 0.05481238663196564, 0.055407408624887466, 0.05621438845992088, 0.06257933378219604, 0.05801501125097275, 0.060246504843235016, 0.05982547253370285, 0.062124673277139664, 0.05535302683711052, 0.06091370806097984, 0.06288151443004608, 0.0609273761510849, 0.057458747178316116, 0.06056663393974304, 0.055214207619428635, 0.062088191509246826, 0.05114787444472313, 0.05280804634094238, 0.06295907497406006, 0.057370517402887344, 0.059639737010002136, 0.05812444910407066, 0.059814341366291046, 0.06279388815164566, 0.05929998308420181, 0.05157823488116264, 0.058245882391929626, 0.05677517130970955, 0.059411320835351944, 0.058766696602106094, 0.06646117568016052, 0.06686534732580185, 0.05864262580871582, 0.06895540654659271, 0.0633116140961647, 0.06076812744140625, 0.06038903445005417, 0.0604032464325428, 0.060416050255298615, 0.056878749281167984, 0.05538332462310791, 0.05467897653579712, 0.06274028867483139, 0.05653800442814827, 0.06312194466590881, 0.06125542148947716, 0.06379865854978561, 0.04699958115816116, 0.060972537845373154, 0.06174490973353386, 0.06291224807500839, 0.05819633603096008, 0.06395228207111359, 0.06504271924495697, 0.060539815574884415, 0.053696662187576294, 0.0628112256526947, 0.059804003685712814, 0.049686603248119354, 0.05617419630289078, 0.06030966341495514, 0.06485148519277573, 0.05195184051990509, 0.06169145926833153, 0.06239495798945427, 0.056651704013347626, 0.05520517751574516, 0.06656593829393387, 0.06184922903776169, 0.05732029676437378, 0.05489601939916611, 0.057761434465646744, 0.05675823986530304, 0.06313259154558182, 0.061367157846689224, 0.06327057629823685, 0.06596582382917404, 0.061944302171468735, 0.054283078759908676, 0.05459565669298172, 0.0648152083158493, 0.06572197377681732, 0.06596438586711884, 0.054039366543293, 0.059199802577495575, 0.05953183025121689, 0.06330868601799011, 0.06091242656111717, 0.05820770561695099, 0.058757249265909195, 0.07130879163742065, 0.055655673146247864, 0.05354898050427437, 0.05560440197587013, 0.060449838638305664, 0.05627705529332161, 0.06409335136413574, 0.055131394416093826, 0.057003531605005264, 0.06265990436077118, 0.058316878974437714, 0.061549387872219086, 0.05309399589896202, 0.05518084764480591, 0.06340541690587997, 0.06263074278831482, 0.0541352741420269, 0.06625120341777802, 0.06666667014360428, 0.062292322516441345, 0.06649789214134216, 0.07078131288290024, 0.06535559892654419, 0.06064293906092644, 0.06065850704908371, 0.06066874787211418, 0.05866166576743126, 0.06539417803287506, 0.0525270439684391, 0.0625130757689476, 0.06234882026910782, 0.06749363243579865, 0.0604390986263752, 0.06417560577392578, 0.06733530014753342, 0.054632518440485, 0.06271350383758545, 0.06654549390077591, 0.06335660070180893, 0.05958830192685127, 0.060040026903152466, 0.06864149868488312, 0.05173572897911072, 0.06089582294225693, 0.053795475512742996, 0.060242969542741776, 0.06329694390296936, 0.05969711020588875, 0.05356620252132416, 0.07497700303792953, 0.060867369174957275, 0.06241839751601219, 0.07107771188020706, 0.05474314093589783, 0.05951428785920143, 0.06259176880121231, 0.06805561482906342, 0.06029938906431198, 0.06777293235063553, 0.05974895507097244, 0.07197846472263336, 0.05899232253432274, 0.06364856660366058, 0.07178019732236862, 0.06057022139430046, 0.0689159482717514, 0.06294266879558563, 0.05943054333329201, 0.06840962171554565, 0.058555711060762405, 0.06670825183391571, 0.06041065603494644, 0.05725351721048355, 0.06695582717657089, 0.06050742790102959, 0.06963484734296799, 0.06039425730705261, 0.055632125586271286, 0.05783051997423172, 0.06939788907766342, 0.059400178492069244, 0.06605152040719986, 0.06376616656780243, 0.05345463752746582, 0.05963073670864105, 0.06115410476922989, 0.0600624680519104, 0.06602464616298676, 0.06491927057504654, 0.06115439534187317, 0.06288836151361465, 0.06545285880565643, 0.057589415460824966, 0.056142278015613556, 0.06574379652738571, 0.06462838500738144, 0.06784884631633759, 0.06837499141693115, 0.06633254885673523, 0.06518828868865967, 0.062185510993003845, 0.06794045865535736, 0.05578145012259483, 0.0646793395280838, 0.05944645777344704, 0.05656251683831215, 0.05392716825008392, 0.06334402412176132, 0.0692700520157814, 0.05793207511305809, 0.062045954167842865, 0.059469349682331085, 0.05705050006508827, 0.06373020261526108, 0.06070580333471298, 0.05032794922590256, 0.0647108182311058, 0.05857172980904579, 0.06005276367068291, 0.061918724328279495, 0.058989230543375015, 0.06679905205965042, 0.06664150208234787, 0.058900415897369385, 0.06466473639011383, 0.06494811177253723, 0.06264375150203705, 0.0686153694987297, 0.05732003599405289, 0.05891633778810501, 0.06800786405801773, 0.06350599974393845, 0.06603343039751053, 0.06851836293935776, 0.06754894554615021, 0.06771838665008545, 0.056927673518657684, 0.07093744724988937, 0.06697903573513031, 0.06790226697921753, 0.06468655169010162, 0.06252912431955338, 0.06719233095645905, 0.06592220813035965, 0.06497589498758316, 0.054865989834070206, 0.06663601100444794, 0.06474032253026962, 0.06740621477365494, 0.05643100664019585, 0.06471668183803558, 0.05866239592432976, 0.06931239366531372, 0.05957963317632675, 0.06167769804596901, 0.060758642852306366, 0.060105402022600174, 0.07139881700277328, 0.06040717288851738, 0.06411806493997574, 0.06456401199102402, 0.06976354867219925, 0.0580148808658123, 0.0580454021692276, 0.05716332048177719, 0.05662989243865013, 0.06793075799942017, 0.06930944323539734, 0.0735725611448288, 0.061441823840141296, 0.0700366422533989, 0.06569036096334457, 0.06071190908551216, 0.05683537945151329, 0.06234186142683029, 0.06842172145843506, 0.06081649661064148, 0.0736304298043251, 0.06218529865145683, 0.06290572136640549, 0.065378338098526, 0.06160657852888107, 0.07379359751939774, 0.06237180531024933, 0.06978585571050644, 0.06494703143835068, 0.06359180808067322, 0.06634372472763062, 0.06187775731086731, 0.06538139283657074, 0.06626279652118683, 0.06643852591514587, 0.06633056700229645, 0.05939232558012009, 0.05928406864404678, 0.07478885352611542, 0.06475783884525299, 0.05628972873091698, 0.06622768193483353, 0.06567894667387009, 0.060929201543331146, 0.06366758793592453, 0.06960557401180267, 0.06432968378067017, 0.06377018243074417, 0.05838923528790474, 0.07438328117132187, 0.06753115355968475, 0.06515863537788391, 0.05677370727062225, 0.05996989086270332, 0.0684523805975914, 0.05539968982338905, 0.06922204047441483, 0.06186299026012421, 0.06507197767496109, 0.06419650465250015, 0.06768741458654404, 0.06919466704130173, 0.061843592673540115, 0.06343049556016922, 0.0665183812379837, 0.05797222629189491, 0.0637267455458641, 0.06359713524580002, 0.06610812246799469, 0.06274312734603882, 0.06481792032718658, 0.06494605541229248, 0.05509132891893387, 0.07215195149183273, 0.07618483901023865, 0.06190355494618416, 0.06810833513736725, 0.07117632031440735, 0.06334327906370163, 0.0748620256781578, 0.06566690653562546, 0.06538365036249161, 0.06407235562801361, 0.06651211529970169, 0.06947838515043259, 0.05977165699005127, 0.07118172943592072, 0.05877182260155678, 0.0680113360285759, 0.07188885658979416, 0.06414825469255447, 0.06590476632118225, 0.06635789573192596, 0.06402720510959625, 0.0687151774764061, 0.06314726173877716, 0.05590527877211571, 0.06228373944759369, 0.07031217217445374, 0.06156943365931511, 0.06971153616905212, 0.07210202515125275, 0.06419412791728973, 0.06940873712301254, 0.06597179174423218, 0.05741406977176666, 0.06775444746017456, 0.059496186673641205, 0.07408338785171509, 0.0536230094730854, 0.07091391831636429, 0.06338349729776382, 0.06220155954360962, 0.06063518673181534, 0.05913183093070984, 0.07069689780473709, 0.07131390273571014, 0.0699920579791069, 0.06682567298412323, 0.060782574117183685, 0.06060102954506874, 0.06235799193382263, 0.06447423249483109, 0.06282325834035873, 0.07082913815975189, 0.06871018558740616, 0.06481442600488663, 0.06881289184093475, 0.06369047611951828, 0.07187065482139587, 0.06157542020082474, 0.06188543513417244, 0.06682183593511581, 0.0697360634803772, 0.06482867151498795, 0.06352803111076355, 0.07764328271150589, 0.06676719337701797, 0.06318588554859161, 0.06320284307003021, 0.06800133734941483, 0.07432972639799118, 0.062003716826438904, 0.0732250064611435, 0.06431743502616882, 0.06595054268836975, 0.07216843217611313, 0.05972659960389137, 0.05717018246650696, 0.06571981310844421, 0.06319041550159454, 0.07347822189331055, 0.059362463653087616, 0.06283624470233917, 0.0669015571475029, 0.07217135280370712, 0.06368725001811981, 0.0625394806265831, 0.06124182417988777, 0.06722477823495865, 0.06984381377696991, 0.06169242411851883, 0.06281840801239014, 0.07947740703821182, 0.06807117909193039, 0.062419481575489044, 0.06924464553594589, 0.07007145881652832, 0.059707146137952805, 0.0636424869298935, 0.06879690289497375, 0.06386338174343109, 0.062258280813694, 0.06220956891775131, 0.07253339886665344, 0.06861013174057007, 0.06496793776750565, 0.06947527080774307, 0.06758161634206772, 0.06133547052741051, 0.07432006299495697, 0.06715237349271774, 0.06592629849910736, 0.06887669116258621, 0.06735511124134064, 0.0696234330534935, 0.06540084630250931, 0.06767482310533524, 0.06615646183490753, 0.07648713141679764, 0.06719893217086792, 0.06802205741405487, 0.0655958279967308, 0.06912675499916077, 0.06630922108888626, 0.06970441341400146, 0.0630130022764206, 0.05968774855136871, 0.06724384427070618, 0.06689271330833435, 0.06779307872056961, 0.06587504595518112, 0.06467786431312561, 0.06906945258378983, 0.0654291957616806, 0.06893106549978256, 0.06403879076242447, 0.06734488159418106, 0.0670384019613266, 0.07196985185146332, 0.06553804874420166, 0.06546113640069962, 0.06688711047172546, 0.06670838594436646, 0.07312630116939545, 0.06416843831539154, 0.06727249920368195, 0.07364865392446518, 0.06655240058898926, 0.06415620446205139, 0.0726928785443306, 0.06958191841840744, 0.06559514999389648, 0.07302688807249069, 0.06717761605978012, 0.06899894028902054, 0.06353579461574554, 0.06789783388376236, 0.06623896211385727, 0.06902868300676346, 0.07475744187831879, 0.06850698590278625, 0.07242222875356674, 0.06964821368455887, 0.06784311681985855, 0.06601375341415405, 0.077056385576725, 0.07089691609144211, 0.07653701305389404, 0.07030140608549118, 0.06925511360168457, 0.07091346383094788, 0.07320354878902435, 0.0768422782421112, 0.06945318728685379, 0.050231609493494034, 0.07171432673931122, 0.06326904147863388, 0.07828911393880844, 0.07225999981164932, 0.06922399997711182, 0.0704682469367981, 0.06823529303073883, 0.0675220862030983, 0.06908723711967468, 0.07401468604803085, 0.06265030056238174, 0.06724267452955246, 0.06767482310533524, 0.06642097234725952, 0.0677555501461029, 0.07200299948453903, 0.06816671788692474, 0.07484867423772812, 0.07282068580389023, 0.06071995198726654, 0.07109834253787994, 0.06604011356830597]","[0.0, 0.04607750475406647, 0.046900972723960876, 0.05068574845790863, 0.04993398115038872, 0.050823360681533813, 0.06090163066983223, 0.06871673464775085, 0.06868687272071838, 0.07319952547550201, 0.060271043330430984, 0.06111243739724159, 0.06519677489995956, 0.0771336778998375, 0.0715734213590622, 0.0710207000374794, 0.07170981913805008, 0.06746787577867508, 0.07604790478944778, 0.07482509315013885, 0.06661095470190048, 0.06912551820278168, 0.08090692013502121, 0.07027415186166763, 0.09320411831140518, 0.08222433179616928, 0.08624596893787384, 0.07996662706136703, 0.08370096236467361, 0.08137733489274979, 0.07877565175294876, 0.08531935513019562, 0.08873558044433594, 0.074826680123806, 0.08223763108253479, 0.07189542800188065, 0.09472178667783737, 0.09240172803401947, 0.07989537715911865, 0.07916417717933655, 0.09099593758583069, 0.08406074345111847, 0.07848040759563446, 0.07645587623119354, 0.06883024424314499, 0.08402661979198456, 0.09512541443109512, 0.08725152164697647, 0.08393027633428574, 0.09173434972763062, 0.10077334940433502, 0.07874108850955963, 0.07698734849691391, 0.10998207330703735, 0.10035756975412369, 0.09036719053983688, 0.09644005447626114, 0.09065999835729599, 0.08563931286334991, 0.08022922277450562, 0.0979902446269989, 0.09523244947195053, 0.08317490667104721, 0.09337779879570007, 0.09721561521291733, 0.08816151320934296, 0.08592169731855392, 0.09003831446170807, 0.08700308948755264, 0.08515699207782745, 0.09730054438114166, 0.08094151318073273, 0.09158767759799957, 0.09295138716697693, 0.08004294335842133, 0.0781622901558876, 0.10581947863101959, 0.08989839255809784, 0.09737782925367355, 0.11717630177736282, 0.08970976620912552, 0.09976105391979218, 0.10197760909795761, 0.10459153354167938, 0.10393325239419937, 0.10203106701374054, 0.08380290120840073, 0.10120252519845963, 0.10241248458623886, 0.10514435172080994, 0.1100655123591423, 0.10260703414678574, 0.1049441397190094, 0.1070452630519867, 0.08894942700862885, 0.10348919779062271, 0.09274289757013321, 0.11397102475166321, 0.0984659269452095, 0.11816348135471344, 0.09894963353872299, 0.09744257479906082, 0.09595899283885956, 0.11019382625818253, 0.0933174267411232, 0.09596262127161026, 0.10713858902454376, 0.09128729999065399, 0.09410511702299118, 0.10389919579029083, 