last_val_loss,dataset,ul2,causal_denoisers,noncausal_masking,causal_divider,s_divider,r_divider,x_divider,randomize_denoiser_settings,randomize_mask_width,no_special_tokens,alternate_denoisers,progressive_tasks,model_scale,depth,width,num_params,num_non_embedding_params,num_heads,linear_value,seed,run_num,max_epochs,max_steps,max_tokens,max_time_seconds,gpu_capacity_scalar,train_loss_causal,train_pplx_causal,train_acc_causal,train_loss_s,train_pplx_s,train_loss_r,train_pplx_r,train_loss_x,train_pplx_x,train_acc_x_causal,train_acc_r_causal,train_acc_s_causal,train_acc_x_masked,train_acc_r_masked,train_acc_s_masked,val_loss_causal,val_pplx_causal,val_acc_causal,val_loss_s,val_pplx_s,val_loss_r,val_pplx_r,val_loss_x,val_pplx_x,grad_norm,cumulative_time,tokens_seen,epoch,batch_size,seq_length,learning_rate,weight_decay
3.09375,fineweb,false,false,false,1.0,0.0,0.0,0.0,false,false,false,false,false,5.23113258028692,21,1024,240683029,137648149,1,false,1600,1,1.0,1000000000,1000000000000,1000000000,1.9,"[10.9375, 6.875, 6.59375, 6.1875, 6.15625, 6.0625, 5.875, 5.84375, 5.75, 5.625, 5.625, 5.6875, 5.5, 5.40625, 5.375, 5.25, 5.28125, 5.1875, 5.25, 5.15625, 5.21875, 5.09375, 5.1875, 4.9375, 4.9375, 4.9375, 4.875, 4.96875, 4.9375, 4.96875, 4.875, 4.75, 4.78125, 4.8125, 4.75, 4.8125, 4.8125, 4.71875, 4.75, 4.625, 4.71875, 4.65625, 4.75, 4.65625, 4.53125, 4.59375, 4.59375, 4.5, 4.53125, 4.59375, 4.53125, 4.4375, 4.59375, 4.40625, 4.3125, 4.40625, 4.375, 4.40625, 4.40625, 4.40625, 4.34375, 4.40625, 4.28125, 4.34375, 4.46875, 4.40625, 4.28125, 4.34375, 4.46875, 4.28125, 4.4375, 4.34375, 4.3125, 4.3125, 4.3125, 4.28125, 4.25, 4.25, 4.125, 4.28125, 4.28125, 4.1875, 4.1875, 4.1875, 4.125, 4.1875, 4.0, 4.09375, 4.09375, 4.0625, 4.125, 4.125, 4.03125, 4.1875, 4.125, 4.09375, 4.09375, 4.15625, 4.09375, 3.96875, 3.96875, 3.984375, 3.90625, 3.9375, 3.921875, 3.921875, 3.953125, 3.96875, 4.03125, 3.875, 3.90625, 3.953125, 3.828125, 4.03125, 3.9375, 4.03125, 3.828125, 3.828125, 3.828125, 3.859375, 3.90625, 3.921875, 3.78125, 3.84375, 3.859375, 3.984375, 3.796875, 3.75, 3.828125, 3.75, 3.765625, 3.84375, 3.625, 3.71875, 3.75, 3.734375, 3.703125, 3.75, 3.78125, 3.765625, 3.828125, 3.796875, 3.75, 3.875, 3.734375, 3.796875, 3.84375, 3.6875, 3.84375, 3.765625, 3.65625, 3.765625, 3.828125, 3.703125, 3.765625, 3.75, 3.734375, 3.65625, 3.734375, 3.6875, 3.734375, 3.734375, 3.703125, 3.640625, 3.65625, 3.71875, 3.671875, 3.71875, 3.578125, 3.578125, 3.765625, 3.640625, 3.78125, 3.703125, 3.578125, 3.671875, 3.640625, 3.609375, 3.625, 3.578125, 3.640625, 3.71875, 3.609375, 3.578125, 3.640625, 3.671875, 3.671875, 3.515625, 3.609375, 3.640625, 3.609375, 3.671875, 3.5625, 3.609375, 3.59375, 3.703125, 3.546875, 3.59375, 3.59375, 3.46875, 3.609375, 3.5625, 3.5625, 3.625, 3.53125, 3.546875, 3.625, 3.53125, 3.59375, 3.625, 3.59375, 3.59375, 3.484375, 3.59375, 3.53125, 3.5625, 3.5, 3.484375, 3.546875, 3.625, 3.53125, 3.59375, 3.625, 3.546875, 3.484375, 3.578125, 3.5625, 3.5625, 3.5, 3.46875, 3.5625, 3.375, 3.59375, 3.484375, 3.53125, 3.4375, 3.609375, 3.546875, 3.4375, 3.546875, 3.453125, 3.546875, 3.5625, 3.578125, 3.453125, 3.453125, 3.546875, 3.421875, 3.59375, 3.453125, 3.453125, 3.46875, 3.484375, 3.421875, 3.421875, 3.46875, 3.421875, 3.375, 3.484375, 3.484375, 3.421875, 3.359375, 3.453125, 3.4375, 3.390625, 3.46875, 3.34375, 3.53125, 3.40625, 3.390625, 3.453125, 3.453125, 3.40625, 3.40625, 3.515625, 3.46875, 3.375, 3.453125, 3.375, 3.484375, 3.4375, 3.328125, 3.34375, 3.328125, 3.421875, 3.359375, 3.453125, 3.359375, 3.375, 3.296875, 3.453125, 3.515625, 3.421875, 3.46875, 3.515625, 3.46875, 3.375, 3.34375, 3.4375, 3.359375, 3.375, 3.40625, 3.421875, 3.34375, 3.359375, 3.359375, 3.4375, 3.328125, 3.421875, 3.390625, 3.359375, 3.359375, 3.453125, 3.4375, 3.5625, 3.390625, 3.359375, 3.328125, 3.375, 3.328125, 3.28125, 3.328125, 3.3125, 3.390625, 3.390625, 3.390625, 3.453125, 3.3125, 3.375, 3.328125, 3.375, 3.390625, 3.390625, 3.359375, 3.421875, 3.328125, 3.265625, 3.40625, 3.375, 3.328125, 3.328125, 3.328125, 3.390625, 3.34375, 3.34375, 3.21875, 3.328125, 3.28125, 3.3125, 3.359375, 3.265625, 3.390625, 3.296875, 3.3125, 3.1875, 3.359375, 3.328125, 3.234375, 3.265625, 3.3125, 3.359375, 3.171875, 3.3125, 3.34375, 3.359375, 3.28125, 3.296875, 3.390625, 3.328125, 3.296875, 3.3125, 3.25, 3.34375, 3.375, 3.203125, 3.421875, 3.375, 3.375, 3.3125, 3.296875, 3.328125, 3.28125, 3.296875, 3.28125, 3.28125, 3.296875, 3.265625, 3.265625, 3.359375, 3.171875, 3.328125, 3.328125, 3.296875, 3.109375, 3.265625, 3.328125, 3.34375, 3.328125, 3.234375, 3.34375, 3.3125, 3.25, 3.265625, 3.359375, 3.34375, 3.3125, 3.3125, 3.25, 3.21875, 3.25, 3.234375, 3.265625, 3.21875, 3.28125, 3.34375, 3.359375, 3.3125, 3.203125, 3.28125, 3.375, 3.265625, 3.3125, 3.265625, 3.203125, 3.234375, 3.25, 3.234375, 3.265625, 3.296875, 3.234375, 3.21875, 3.15625, 3.15625, 3.28125, 3.296875, 3.1875, 3.28125, 3.203125, 3.046875, 3.234375, 3.171875, 3.265625, 3.171875, 3.3125, 3.28125, 3.21875, 3.21875, 3.25, 3.234375, 3.125, 3.234375, 3.203125, 3.359375, 3.234375, 3.265625, 3.078125, 3.21875, 3.3125, 3.21875, 3.21875, 3.140625, 3.28125, 3.21875, 3.125, 3.296875, 3.1875, 3.1875, 3.171875, 3.15625, 3.21875, 3.25, 3.203125, 3.234375, 3.28125, 3.1875, 3.28125, 3.078125, 3.125, 3.140625, 3.140625, 3.1875, 3.109375, 3.125, 3.15625, 3.28125, 3.140625, 3.28125, 3.265625, 3.203125, 3.125, 3.296875, 3.09375, 3.078125, 3.296875, 3.171875, 3.25, 3.234375, 3.171875, 3.09375, 3.21875, 3.34375, 3.15625, 3.109375, 3.0625, 3.078125, 3.15625, 3.125, 3.1875, 3.140625, 3.09375, 3.1875, 3.1875, 3.109375, 3.15625, 3.1875, 3.234375, 3.109375, 3.171875, 3.15625, 3.171875, 3.109375, 3.0625, 3.125, 3.015625, 3.125, 3.171875, 3.265625, 3.109375, 3.1875, 3.234375, 3.15625, 3.15625, 3.078125, 3.1875, 3.125, 3.078125, 3.21875, 3.3125, 3.15625, 3.15625, 3.21875, 3.015625, 3.078125, 3.078125, 3.125, 3.0, 3.078125, 3.109375, 3.0625, 3.203125, 3.1875, 3.1875, 3.125, 3.15625, 3.140625, 3.09375, 3.140625, 3.15625, 3.09375, 3.046875, 3.171875, 3.140625, 3.046875, 3.140625, 3.140625, 3.25, 3.125, 3.125, 3.203125, 3.109375, 3.046875, 3.21875, 3.0625, 3.03125, 3.140625, 3.0, 3.109375, 3.09375, 3.078125, 3.046875, 3.109375, 3.078125, 3.0, 3.203125, 3.0, 3.046875, 3.1875, 3.0, 3.078125, 3.109375, 3.015625, 3.171875, 3.0625, 3.046875, 2.984375, 3.0625, 2.984375, 2.9375, 3.0, 3.0625, 3.09375, 3.046875, 2.890625, 3.078125, 2.984375, 3.125, 3.0625, 2.984375, 3.0625, 3.0, 3.09375, 2.890625, 2.984375, 2.96875, 2.96875, 2.875, 3.046875, 3.0, 2.984375, 2.890625, 2.859375, 3.015625, 3.15625, 2.953125, 2.96875, 2.953125, 2.984375, 2.890625, 3.015625, 2.921875, 2.90625, 2.96875, 2.921875, 3.046875, 3.0]","[56320.0, 968.0, 732.0, 488.0, 472.0, 430.0, 356.0, 346.0, 314.0, 278.0, 278.0, 296.0, 245.0, 223.0, 216.0, 191.0, 197.0, 179.0, 191.0, 174.0, 185.0, 163.0, 179.0, 140.0, 140.0, 140.0, 131.0, 144.0, 140.0, 144.0, 131.0, 115.5, 119.5, 123.0, 115.5, 123.0, 123.0, 112.0, 115.5, 102.0, 112.0, 105.5, 115.5, 105.5, 93.0, 99.0, 99.0, 90.0, 93.0, 99.0, 93.0, 84.5, 99.0, 82.0, 74.5, 82.0, 79.5, 82.0, 82.0, 82.0, 77.0, 82.0, 72.5, 77.0, 87.5, 82.0, 72.5, 77.0, 87.5, 72.5, 84.5, 77.0, 74.5, 74.5, 74.5, 72.5, 70.0, 70.0, 62.0, 72.5, 72.5, 66.0, 66.0, 66.0, 62.0, 66.0, 54.75, 60.0, 60.0, 58.25, 62.0, 62.0, 56.25, 66.0, 62.0, 60.0, 60.0, 64.0, 60.0, 53.0, 53.0, 53.75, 49.75, 51.25, 50.5, 50.5, 52.25, 53.0, 56.25, 48.25, 49.75, 52.25, 46.0, 56.25, 51.25, 56.25, 46.0, 46.0, 46.0, 47.5, 49.75, 50.5, 44.0, 46.75, 47.5, 53.75, 44.5, 42.5, 46.0, 42.5, 43.25, 46.75, 37.5, 41.25, 42.5, 42.0, 40.5, 42.5, 44.0, 43.25, 46.0, 44.5, 42.5, 48.25, 42.0, 44.5, 46.75, 40.0, 46.75, 43.25, 38.75, 43.25, 46.0, 40.5, 43.25, 42.5, 42.0, 38.75, 42.0, 40.0, 42.0, 42.0, 40.5, 38.25, 38.75, 41.25, 39.25, 41.25, 35.75, 35.75, 43.25, 38.25, 44.0, 40.5, 35.75, 39.25, 38.25, 37.0, 37.5, 35.75, 38.25, 41.25, 37.0, 35.75, 38.25, 39.25, 39.25, 33.75, 37.0, 38.25, 37.0, 39.25, 35.25, 37.0, 36.5, 40.5, 34.75, 36.5, 36.5, 32.0, 37.0, 35.25, 35.25, 37.5, 34.25, 34.75, 37.5, 34.25, 36.5, 37.5, 36.5, 36.5, 32.5, 36.5, 34.25, 35.25, 33.25, 32.5, 34.75, 37.5, 34.25, 36.5, 37.5, 34.75, 32.5, 35.75, 35.25, 35.25, 33.25, 32.0, 35.25, 29.25, 36.5, 32.5, 34.25, 31.125, 37.0, 34.75, 31.125, 34.75, 31.625, 34.75, 35.25, 35.75, 31.625, 31.625, 34.75, 30.625, 36.5, 31.625, 31.625, 32.0, 32.5, 30.625, 30.625, 32.0, 30.625, 29.25, 32.5, 32.5, 30.625, 28.75, 31.625, 31.125, 29.75, 32.0, 28.375, 34.25, 30.125, 29.75, 31.625, 31.625, 30.125, 30.125, 33.75, 32.0, 29.25, 31.625, 29.25, 32.5, 31.125, 27.875, 28.375, 27.875, 30.625, 28.75, 31.625, 28.75, 29.25, 27.0, 31.625, 33.75, 30.625, 32.0, 33.75, 32.0, 29.25, 28.375, 31.125, 28.75, 29.25, 30.125, 30.625, 28.375, 28.75, 28.75, 31.125, 27.875, 30.625, 29.75, 28.75, 28.75, 31.625, 31.125, 35.25, 29.75, 28.75, 27.875, 29.25, 27.875, 26.625, 27.875, 27.5, 29.75, 29.75, 29.75, 31.625, 27.5, 29.25, 27.875, 29.25, 29.75, 29.75, 28.75, 30.625, 27.875, 26.25, 30.125, 29.25, 27.875, 27.875, 27.875, 29.75, 28.375, 28.375, 25.0, 27.875, 26.625, 27.5, 28.75, 26.25, 29.75, 27.0, 27.5, 24.25, 28.75, 27.875, 25.375, 26.25, 27.5, 28.75, 23.875, 27.5, 28.375, 28.75, 26.625, 27.0, 29.75, 27.875, 27.0, 27.5, 25.75, 28.375, 29.25, 24.625, 30.625, 29.25, 29.25, 27.5, 27.0, 27.875, 26.625, 27.0, 26.625, 26.625, 27.0, 26.25, 26.25, 28.75, 23.875, 27.875, 27.875, 27.0, 22.375, 26.25, 27.875, 28.375, 27.875, 25.375, 28.375, 27.5, 25.75, 26.25, 28.75, 28.375, 27.5, 27.5, 25.75, 25.0, 25.75, 25.375, 26.25, 25.0, 26.625, 28.375, 28.75, 27.5, 24.625, 26.625, 29.25, 26.25, 27.5, 26.25, 24.625, 25.375, 25.75, 25.375, 26.25, 27.0, 25.375, 25.0, 23.5, 23.5, 26.625, 27.0, 24.25, 26.625, 24.625, 21.0, 25.375, 23.875, 26.25, 23.875, 27.5, 26.625, 25.0, 25.0, 25.75, 25.375, 22.75, 25.375, 24.625, 28.75, 25.375, 26.25, 21.75, 25.0, 27.5, 25.0, 25.0, 23.125, 26.625, 25.0, 22.75, 27.0, 24.25, 24.25, 23.875, 23.5, 25.0, 25.75, 24.625, 25.375, 26.625, 24.25, 26.625, 21.75, 22.75, 23.125, 23.125, 24.25, 22.375, 22.75, 23.5, 26.625, 23.125, 26.625, 26.25, 24.625, 22.75, 27.0, 22.125, 21.75, 27.0, 23.875, 25.75, 25.375, 23.875, 22.125, 25.0, 28.375, 23.5, 22.375, 21.375, 21.75, 23.5, 22.75, 24.25, 23.125, 22.125, 24.25, 24.25, 22.375, 23.5, 24.25, 25.375, 22.375, 23.875, 23.5, 23.875, 22.375, 21.375, 22.75, 20.375, 22.75, 23.875, 26.25, 22.375, 24.25, 25.375, 23.5, 23.5, 21.75, 24.25, 22.75, 21.75, 25.0, 27.5, 23.5, 23.5, 25.0, 20.375, 21.75, 21.75, 22.75, 20.125, 21.75, 22.375, 21.375, 24.625, 24.25, 24.25, 22.75, 23.5, 23.125, 22.125, 23.125, 23.5, 22.125, 21.0, 23.875, 23.125, 21.0, 23.125, 23.125, 25.75, 22.75, 22.75, 24.625, 22.375, 21.0, 25.0, 21.375, 20.75, 23.125, 20.125, 22.375, 22.125, 21.75, 21.0, 22.375, 21.75, 20.125, 24.625, 20.125, 21.0, 24.25, 20.125, 21.75, 22.375, 20.375, 23.875, 21.375, 21.0, 19.75, 21.375, 19.75, 18.875, 20.125, 21.375, 22.125, 21.0, 18.0, 21.75, 19.75, 22.75, 21.375, 19.75, 21.375, 20.125, 22.125, 18.0, 19.75, 19.5, 19.5, 17.75, 21.0, 20.125, 19.75, 18.0, 17.5, 20.375, 23.5, 19.125, 19.5, 19.125, 19.75, 18.0, 20.375, 18.625, 18.25, 19.5, 18.625, 21.0, 20.125]","[1.6551906810491346e-05, 0.09317068010568619, 0.09502449631690979, 0.09909626841545105, 0.10988810658454895, 0.09669624269008636, 0.11021915078163147, 0.12470206618309021, 0.12600967288017273, 0.13766220211982727, 0.1172868087887764, 0.11270193010568619, 0.12369240075349808, 0.1444815993309021, 0.13772842288017273, 0.13635461032390594, 0.1442333161830902, 0.12586070597171783, 0.14681541919708252, 0.1443822830915451, 0.13307732343673706, 0.1366690993309021, 0.14769266545772552, 0.12872417271137238, 0.1720239669084549, 0.16444319486618042, 0.15202926099300385, 0.14244571328163147, 0.14650093019008636, 0.1493644118309021, 0.15360169112682343, 0.15787208080291748, 0.16871358454227448, 0.149513378739357, 0.14972855150699615, 0.14254501461982727, 0.16459216177463531, 0.1660652756690979, 0.15115201473236084, 0.15222789347171783, 0.15929554402828217, 0.1698722243309021, 0.1560017168521881, 0.15090373158454895, 0.1467823088169098, 0.162208691239357, 0.1780819594860077, 0.1630362868309021, 0.16417835652828217, 0.17449019849300385, 0.19024761021137238, 0.14880163967609406, 0.1532706618309021, 0.2048298418521881, 0.1960904449224472, 0.17271915078163147, 0.18087923526763916, 0.17086532711982727, 0.17328190803527832, 0.154296875, 0.1851992905139923, 0.1891055405139923, 0.1663632094860077, 0.1882282793521881, 0.1720239669084549, 0.16983911395072937, 0.16887910664081573, 0.1823689043521881, 0.1765095293521881, 0.16980601847171783, 0.17765161395072937, 0.16955773532390594, 0.18000198900699615, 0.18586136400699615, 0.15734241902828217, 0.16066935658454895, 0.21044094860553741, 0.18733447790145874, 0.18655654788017273, 0.19820907711982727, 0.1824682205915451, 0.19153866171836853, 0.18612618744373322, 0.206154003739357, 0.20315811038017273, 0.20115531980991364, 0.18029992282390594, 0.19647113978862762, 0.19211798906326294, 0.1892048418521881, 0.1778833419084549, 0.19645458459854126, 0.21482719480991364, 0.18473583459854126, 0.19148901104927063, 0.18703654408454895, 0.19185315072536469, 0.18197166919708252, 0.17483779788017273, 0.20494571328163147, 0.19284626841545105, 0.20319120585918427, 0.2078588455915451, 0.19261454045772552, 0.21363545954227448, 0.2184024155139923, 0.21678031980991364, 0.19003243744373322, 0.18794690072536469, 0.20583951473236084, 0.204978808760643, 0.19178694486618042, 0.23118048906326294, 0.2097623199224472, 0.19378972053527832, 0.21095405519008636, 0.21605204045772552, 0.20807401835918427, 0.2106395661830902, 0.21813757717609406, 0.185447558760643, 0.19993048906326294, 0.20388638973236084, 0.19483248889446259, 0.24035023152828217, 0.22325211763381958, 0.22432799637317657, 0.18966829776763916, 0.21045748889446259, 0.22955839335918427, 0.20070841908454895, 0.22755561769008636, 0.23573225736618042, 0.20511123538017273, 0.2185513824224472, 0.20774298906326294, 0.2209514081478119, 0.23118048906326294, 0.22315280139446259, 0.19549457728862762, 0.20060911774635315, 0.19095934927463531, 0.23490466177463531, 0.20368777215480804, 0.18697033822536469, 0.2008242905139923, 0.2193789780139923, 0.24061506986618042, 0.21413202583789825, 0.2053264081478119, 0.22957494854927063, 0.22121623158454895, 0.1962890625, 0.19635526835918427, 0.20953059196472168, 0.22909493744373322, 0.20774298906326294, 0.22277210652828217, 0.2054257094860077, 0.21507547795772552, 0.20256224274635315, 0.23167704045772552, 0.215720996260643, 0.2597159743309021, 0.22730733454227448, 0.19758011400699615, 0.22830045223236084, 0.22904528677463531, 0.21212923526763916, 0.21744239330291748, 0.2253873199224472, 0.21994173526763916, 0.20496226847171783, 0.224609375, 0.22575145959854126, 0.23298464715480804, 0.21507547795772552, 0.23761917650699615, 0.21060645580291748, 0.2450675368309021, 0.2083057463169098, 0.19878840446472168, 0.22071968019008636, 0.22604939341545105, 0.20100635290145874, 0.2350039780139923, 0.22772113978862762, 0.21444649994373322, 0.23111426830291748, 0.24710342288017273, 0.23043563961982727, 0.22619836032390594, 0.2441902756690979, 0.2109871506690979, 0.22767147421836853, 0.2197762131690979, 0.20355534553527832, 0.275589257478714, 0.22639697790145874, 0.2389102280139923, 0.20977886021137238, 0.23182600736618042, 0.19855667650699615, 0.1975139081478119, 0.2331005036830902, 0.24817928671836853, 0.22124934196472168, 0.23503707349300385, 0.22244107723236084, 0.22340108454227448, 0.22901217639446259, 0.1744571030139923, 0.23568260669708252, 0.21222855150699615, 0.18640758097171783, 0.21866723895072937, 0.22047139704227448, 0.24854342639446259, 0.22103416919708252, 0.23877780139446259, 0.23202462494373322, 0.2415088713169098, 0.20557467639446259, 0.23306739330291748, 0.22494041919708252, 0.2219279706478119, 0.218849316239357, 0.23308394849300385, 0.2180713713169098, 0.22838321328163147, 0.23366327583789825, 0.27242782711982727, 0.23013770580291748, 0.23586466908454895, 0.24324682354927063, 0.20689883828163147, 0.23593087494373322, 0.240333691239357, 0.24044954776763916, 0.24528270959854126, 0.24134334921836853, 0.21671411395072937, 0.19860632717609406, 0.20832230150699615, 0.2310977280139923, 0.24372683465480804, 0.23210738599300385, 0.24538202583789825, 0.20921610295772552, 0.23861229419708252, 0.20641882717609406, 0.2579118013381958, 0.24165783822536469, 0.24256819486618042, 0.21333752572536469, 0.23646053671836853, 0.21896517276763916, 0.23758606612682343, 0.20910023152828217, 0.24266751110553741, 0.21692928671836853, 0.2513572573661804, 0.23485501110553741, 0.2408633530139923, 0.24192267656326294, 0.24793101847171783, 0.26526084542274475, 0.24284957349300385, 0.199119433760643, 0.22355005145072937, 0.22879700362682343, 0.22659561038017273, 0.2581104338169098, 0.22669491171836853, 0.21545617282390594, 0.23902608454227448, 0.229591503739357, 0.23649364709854126, 0.2414095550775528, 0.22859838604927063, 0.20319120585918427, 0.2552138566970825, 0.23977091908454895, 0.2492220550775528, 0.21583686769008636, 0.23574881255626678, 0.2594676911830902, 0.23629501461982727, 0.24402476847171783, 0.2526482939720154, 0.2428661286830902, 0.23028667271137238, 0.22798596322536469, 0.21636652946472168, 0.2311473786830902, 0.22806872427463531, 0.24284957349300385, 0.23636123538017273, 0.2306177169084549, 0.2588883638381958, 0.23384533822536469, 0.23113082349300385, 0.20691539347171783, 0.25413796305656433, 0.25349244475364685, 0.27044159173965454, 0.24718616902828217, 0.2361295074224472, 0.21643273532390594, 0.21671411395072937, 0.23791711032390594, 0.22922736406326294, 0.23156116902828217, 0.24064818024635315, 0.21621756255626678, 0.24159163236618042, 0.25334349274635315, 0.25675317645072937, 0.23689089715480804, 0.23824813961982727, 0.25056275725364685, 0.2448689043521881, 0.22795286774635315, 0.2335474044084549, 0.23331567645072937, 0.2039029449224472, 0.2439916580915451, 0.275589257478714, 0.24940413236618042, 0.2159692794084549, 0.24758341908454895, 0.22507283091545105, 0.23659296333789825, 0.23015426099300385, 0.22879700362682343, 0.27257680892944336, 0.2562069594860077, 0.2345736175775528, 0.25539591908454895, 0.23568260669708252, 0.227638378739357, 0.2487751543521881, 0.24524959921836853, 0.24728548526763916, 0.24746756255626678, 0.23088255524635315, 0.24791446328163147, 0.26380428671836853, 0.25397247076034546, 0.24124404788017273, 0.255859375, 0.26310911774635315, 0.243064746260643, 0.230568066239357, 0.23055151104927063, 0.2366260588169098, 0.22043830156326294, 0.25306209921836853, 0.21913069486618042, 0.2546014189720154, 0.25046345591545105, 0.23281912505626678, 0.22601628303527832, 0.2580607831478119, 0.2481958419084549, 0.23473913967609406, 0.2549821138381958, 0.2310977280139923, 0.24425648152828217, 0.22947563230991364, 0.23773503303527832, 0.22990599274635315, 0.24745100736618042, 0.22595007717609406, 0.25559455156326294, 0.206931933760643, 0.21712791919708252, 0.23872815072536469, 0.23694054782390594, 0.2068822830915451, 0.2457958161830902, 0.2322729080915451, 0.23192532360553741, 0.24685513973236084, 0.24652409553527832, 0.22184520959854126, 0.2480965256690979, 0.23861229419708252, 0.23270325362682343, 0.23361361026763916, 0.2194286286830902, 0.2394067794084549, 0.23101496696472168, 0.24720272421836853, 0.2015194594860077, 0.24900688230991364, 0.2375529706478119, 0.2569352388381958, 0.25675317645072937, 0.21168233454227448, 0.2384302169084549, 0.23771849274635315, 0.22012381255626678, 0.2185513824224472, 0.2457958161830902, 0.2371557205915451, 0.23937366902828217, 0.25802767276763916, 0.25074484944343567, 0.22785355150699615, 0.23116393387317657, 0.2350536286830902, 0.24480269849300385, 0.26521119475364685, 0.2252880036830902, 0.22595007717609406, 0.2412605881690979, 0.24730204045772552, 0.2384798675775528, 0.22793631255626678, 0.2642180919647217, 0.24675582349300385, 0.2603946030139923, 0.23265360295772552, 0.26350635290145874, 0.24044954776763916, 0.22416247427463531, 0.24385924637317657, 0.2305184006690979, 0.2430150955915451, 0.26754501461982727, 0.2471199631690979, 0.2443392425775528, 0.2635229229927063, 0.24420683085918427, 0.23318326473236084, 0.24079714715480804, 0.2631918787956238, 0.27345404028892517, 0.25930216908454895, 0.2651450037956238, 0.2178230881690979, 0.2403833419084549, 0.22058726847171783, 0.23967161774635315, 0.25559455156326294, 0.22207693755626678, 0.22323556244373322, 0.23785090446472168, 0.2701105773448944, 0.25397247076034546, 0.2371060699224472, 0.25950080156326294, 0.27282509207725525, 0.24337923526763916, 0.25119173526763916, 0.22126589715480804, 0.22265625, 0.2606925368309021, 0.2506455183029175, 0.23904263973236084, 0.26433396339416504, 0.25011587142944336, 0.24289923906326294, 0.2431640625, 0.2881355881690979, 0.24117782711982727, 0.22591698169708252, 0.2527807354927063, 0.22335143387317657, 0.2602456212043762, 0.23770193755626678, 0.2452661544084549, 0.21678031980991364, 0.2688526213169098, 0.23884402215480804, 0.25013241171836853, 0.2399364411830902, 0.24084679782390594, 0.2483944594860077, 0.23387844860553741, 0.25539591908454895, 0.248924121260643, 0.23879435658454895, 0.2283666580915451, 0.23660950362682343, 0.25887182354927063, 0.2610732316970825, 0.22517214715480804, 0.2659725844860077, 0.23127979040145874, 0.2421378493309021, 0.24951998889446259, 0.27126920223236084, 0.2698126435279846, 0.26008009910583496, 0.236228808760643, 0.2633408308029175, 0.26941537857055664, 0.22825080156326294, 0.23756952583789825, 0.2380826324224472, 0.26678362488746643, 0.2414592206478119, 0.24170748889446259, 0.2372550368309021, 0.25402212142944336, 0.21903137862682343, 0.2710374593734741, 0.2672801911830902, 0.26686638593673706, 0.2546345293521881, 0.25524696707725525, 0.22227555513381958, 0.24266751110553741, 0.2533269226551056, 0.29020458459854126, 0.24154198169708252, 0.24923861026763916, 0.2490730881690979, 0.20681607723236084, 0.2632249593734741, 0.2724609375, 0.24660685658454895, 0.26380428671836853, 0.23543432354927063, 0.23468948900699615, 0.2728085219860077, 0.2642677426338196, 0.28601694107055664, 0.2503972351551056, 0.26360565423965454, 0.263870507478714, 0.28308725357055664, 0.26296013593673706, 0.24640823900699615, 0.24879170954227448, 0.24445511400699615, 0.2689022719860077, 0.2594345808029175, 0.23131290078163147, 0.26223185658454895, 0.2603946030139923, 0.27570509910583496, 0.26550912857055664, 0.25196966528892517, 0.25604143738746643, 0.2710374593734741, 0.263671875, 0.23912540078163147, 0.228515625, 0.26340705156326294, 0.26282772421836853, 0.2515227794647217, 0.273636132478714, 0.25304555892944336, 0.269332617521286, 0.2340770661830902, 0.25847458839416504, 0.24738480150699615, 0.2658732831478119, 0.25006622076034546, 0.26188427209854126, 0.25114208459854126, 0.2616194486618042, 0.24010196328163147, 0.24611030519008636, 0.2523834705352783, 0.25860700011253357, 0.2609904706478119, 0.250198632478714, 0.24740135669708252, 0.2541876435279846, 0.23199152946472168, 0.23513638973236084, 0.2326204925775528, 0.2541545331478119, 0.2595173418521881, 0.26320841908454895, 0.24748411774635315, 0.26370498538017273, 0.259566992521286, 0.29157838225364685, 0.24318061769008636, 0.26843881607055664, 0.27712857723236084, 0.26360565423965454, 0.2592690587043762, 0.29273703694343567, 0.23411017656326294, 0.2686539888381958, 0.2520524263381958, 0.2964943051338196, 0.27630096673965454, 0.259566992521286, 0.23874470591545105, 0.25855734944343567, 0.23826469480991364, 0.2533600330352783, 0.26286083459854126, 0.27161678671836853, 0.2617684006690979, 0.2772940993309021, 0.26603880524635315, 0.24601098895072937, 0.2448689043521881, 0.291214257478714, 0.2735368013381958, 0.25211864709854126, 0.2672801911830902, 0.26082494854927063, 0.25667041540145874, 0.24298198521137238, 0.2760692536830902, 0.28020721673965454, 0.30096331238746643, 0.2499503493309021, 0.25422072410583496, 0.26193392276763916, 0.2601463198661804, 0.28436174988746643, 0.2518538236618042, 0.24347855150699615, 0.2443889081478119, 0.24250198900699615, 0.24407441914081573, 0.24432270228862762, 0.28727489709854126, 0.25739869475364685, 0.2525489926338196, 0.2772444486618042, 0.2621490955352783, 0.29222390055656433, 0.279296875, 0.2621987462043762]","[10.9375, 9.5625, 9.25, 9.375, 9.4375, 9.5, 9.5, 9.375, 9.375, 9.4375, 9.3125, 9.375, 9.5625, 9.5, 9.5625, 9.5, 9.4375, 9.625, 9.5, 9.375, 9.625, 9.5, 9.75, 9.5, 9.8125, 9.6875, 9.5625, 9.5625, 9.4375, 9.5, 9.625, 9.625, 9.5625, 9.375, 9.5, 9.5625, 9.625, 9.625, 9.5625, 9.9375, 9.875, 9.8125, 9.8125, 10.0, 10.1875, 10.625, 10.1875, 9.875, 9.875, 9.8125, 10.0, 10.0, 10.0625, 10.4375, 10.5, 10.25, 9.875, 9.8125, 10.1875, 10.1875, 10.5, 10.0625, 10.0625, 10.25, 10.3125, 10.375, 10.9375, 10.3125, 10.375, 9.9375, 10.0625, 10.25, 9.8125, 9.8125, 9.8125, 9.5, 9.5625, 9.6875, 9.625, 9.625, 9.5625, 9.75, 9.75, 9.8125, 9.8125, 9.875, 9.875, 10.25, 10.25, 10.0625, 10.125, 10.0625, 10.5, 9.9375, 10.125, 10.0625, 10.0, 9.9375, 10.0, 9.9375, 10.1875, 10.25, 10.125, 10.0625, 10.0, 10.1875, 10.375, 10.375, 10.375, 10.375, 10.3125, 10.3125, 11.0, 10.375, 10.375, 10.1875, 10.25, 10.125, 10.25, 10.25, 10.125, 10.3125, 10.0625, 10.5, 10.9375, 10.6875, 10.375, 10.0625, 10.25, 10.25, 10.0, 10.4375, 10.0625, 9.8125, 9.8125, 9.8125, 9.6875, 9.75, 10.0, 9.75, 9.875, 10.0, 10.4375, 10.375, 10.125, 10.0625, 9.875, 10.5625, 10.125, 9.875, 10.0625, 10.0, 10.0, 10.25, 10.25, 10.1875, 10.375, 10.375, 10.25, 10.4375, 10.375, 10.125, 10.3125, 10.25, 10.0625, 9.875, 10.4375, 10.4375, 10.375, 10.5, 10.375, 10.4375, 10.3125, 10.5625, 10.6875, 11.0, 10.0625, 10.4375, 10.25, 10.25, 10.25, 10.0, 10.1875, 10.125, 10.25, 10.875, 10.6875, 10.4375, 10.5625, 10.5625, 10.875, 10.25, 10.375, 10.375, 10.4375, 10.375, 10.3125, 10.75, 10.375, 10.4375, 10.125, 10.5, 10.125, 10.0, 10.125, 10.1875, 10.25, 10.125, 10.0625, 10.625, 10.8125, 10.375, 10.5, 10.3125, 10.0, 10.1875, 10.4375, 11.0, 10.375, 10.3125, 10.25, 10.0625, 9.9375, 10.375, 10.3125, 10.25, 10.3125, 10.25, 10.0, 10.1875, 10.25, 10.375, 10.0625, 10.25, 10.4375, 10.125, 10.25, 10.375, 10.3125, 10.25, 10.1875, 10.0625, 10.0, 10.0625, 10.0625, 10.25, 10.3125, 10.625, 10.0625, 10.4375, 9.9375, 10.5, 10.375, 10.4375, 10.0625, 10.25, 10.25, 10.4375, 10.25, 10.4375, 10.5625, 10.4375, 10.4375, 10.6875, 10.625, 10.5625, 10.5625, 10.1875, 10.25, 10.3125, 10.375, 10.375, 10.8125, 10.3125, 10.1875, 10.5, 10.4375, 10.375, 10.25, 10.3125, 10.1875, 10.25, 10.3125, 10.25, 10.0, 10.0625, 10.375, 10.125, 10.1875, 10.125, 10.1875, 10.375, 10.0, 10.0625, 10.1875, 10.0625, 9.9375, 10.25, 10.0625, 10.125, 9.9375, 10.0625, 9.875, 10.125, 10.25, 10.3125, 9.9375, 10.3125, 10.125, 10.0625, 10.1875, 10.25, 9.875, 10.125, 10.0, 10.125, 10.0625, 10.0625, 9.9375, 9.875, 9.875, 10.0625, 10.1875, 10.0, 10.0, 10.0, 10.0, 10.1875, 10.1875, 10.0, 10.25, 10.125, 10.125, 10.0625, 10.0, 10.3125, 10.125, 9.9375, 10.25, 10.0, 10.0, 10.0625, 9.875, 10.0625, 9.9375, 9.9375, 9.875, 9.9375, 10.125, 10.0, 10.0, 9.8125, 9.875, 9.8125, 9.75, 9.6875, 9.6875, 9.8125, 9.6875, 9.8125, 9.75, 9.75, 9.9375, 9.75, 9.625, 9.5625, 10.125, 10.0625, 10.0625, 9.8125, 9.875, 9.875, 10.0, 10.0, 10.0625, 9.875, 9.6875, 9.875, 10.0, 9.875, 9.875, 10.125, 10.25, 10.1875, 10.125, 9.875, 10.25, 9.875, 9.8125, 10.0, 9.8125, 10.0, 9.75, 10.0625, 10.0, 10.25, 10.25, 10.1875, 10.1875, 10.0, 10.125, 10.3125, 10.125, 10.1875, 10.1875, 10.3125, 10.25, 10.375, 10.25, 10.0625, 10.0, 10.0625, 10.0625, 10.0, 10.0, 9.9375, 9.875, 10.0, 9.875, 10.0, 10.5, 10.3125, 10.1875, 10.25, 10.3125, 9.9375, 10.125, 10.25, 10.0625, 10.125, 10.25, 10.0, 10.1875, 10.1875, 10.0, 10.1875, 9.9375, 10.0625, 10.25, 10.125, 10.0, 9.875, 9.9375, 9.6875, 9.8125, 9.875, 9.875, 9.9375, 9.9375, 10.25, 9.9375, 10.0, 9.8125, 10.0, 9.9375, 10.0625, 10.0625, 10.1875, 10.3125, 10.1875, 10.125, 10.25, 10.0, 10.125, 10.125, 10.1875, 10.0625, 10.125, 9.9375, 9.9375, 10.0, 9.9375, 10.0, 10.0, 10.0625, 10.0, 10.0, 9.9375, 10.0, 10.0625, 10.125, 10.0, 10.0, 10.0625, 9.875, 10.125, 10.125, 10.125, 10.0625, 10.375, 10.0, 10.0625, 10.125, 10.0625, 10.0625, 10.0, 10.0, 10.125, 10.1875, 10.125, 10.125, 10.0, 10.0, 10.125, 10.1875, 10.0, 9.8125, 9.875, 10.0625, 9.9375, 10.1875, 9.875, 10.0625, 10.0625, 9.9375, 9.9375, 10.1875, 9.9375, 10.125, 10.0625, 9.875, 10.125, 10.125, 10.0625, 10.1875, 9.875, 9.8125, 10.0, 9.9375, 10.0625, 9.9375, 10.0625, 10.0625, 9.9375, 10.0625, 10.125, 10.0625, 9.8125, 10.1875, 10.1875, 9.9375, 10.1875, 10.1875, 10.5, 10.5, 10.5625, 10.4375, 10.3125, 10.3125, 10.0625, 10.0625, 10.125, 10.3125, 10.1875, 10.1875, 10.25, 10.25, 10.25, 10.1875, 10.3125, 10.5, 10.3125, 10.3125, 10.3125, 10.25, 10.3125, 10.375, 10.375, 10.25, 10.375, 10.1875, 10.25, 10.1875, 10.0, 10.1875, 10.25, 10.375, 10.3125, 10.3125, 10.3125, 10.25, 10.1875, 10.4375, 10.5, 10.4375, 10.3125, 10.25, 10.4375, 10.5, 9.9375, 10.125, 10.0625, 10.25, 10.25, 10.3125, 10.25, 11.0, 11.0, 10.9375, 10.9375, 10.9375, 10.5625, 10.875, 10.5625, 10.6875, 10.5, 10.9375, 10.625, 10.4375, 10.625, 10.625, 10.5, 10.5, 10.625, 10.625, 10.75, 10.4375, 10.375, 10.5625, 10.5625, 10.625, 10.4375, 10.5, 10.5, 10.25, 10.4375, 10.4375, 10.5625, 10.4375, 10.375, 10.5625, 10.5, 10.5625, 10.4375, 10.375]","[56320.0, 14272.0, 10432.0, 11840.0, 12544.0, 13376.0, 13376.0, 11840.0, 11840.0, 12544.0, 11072.0, 11840.0, 14272.0, 13376.0, 14272.0, 13376.0, 12544.0, 15168.0, 13376.0, 11840.0, 15168.0, 13376.0, 17152.0, 13376.0, 18304.0, 16128.0, 14272.0, 14272.0, 12544.0, 13376.0, 15168.0, 15168.0, 14272.0, 11840.0, 13376.0, 14272.0, 15168.0, 15168.0, 14272.0, 20736.0, 19456.0, 18304.0, 18304.0, 22016.0, 26624.0, 41216.0, 26624.0, 19456.0, 19456.0, 18304.0, 22016.0, 22016.0, 23424.0, 34304.0, 36352.0, 28288.0, 19456.0, 18304.0, 26624.0, 26624.0, 36352.0, 23424.0, 23424.0, 28288.0, 30208.0, 32128.0, 56320.0, 30208.0, 32128.0, 20736.0, 23424.0, 28288.0, 18304.0, 18304.0, 18304.0, 13376.0, 14272.0, 16128.0, 15168.0, 15168.0, 14272.0, 17152.0, 17152.0, 18304.0, 18304.0, 19456.0, 19456.0, 28288.0, 28288.0, 23424.0, 24960.0, 23424.0, 36352.0, 20736.0, 24960.0, 23424.0, 22016.0, 20736.0, 22016.0, 20736.0, 26624.0, 28288.0, 24960.0, 23424.0, 22016.0, 26624.0, 32128.0, 32128.0, 32128.0, 32128.0, 30208.0, 30208.0, 59904.0, 32128.0, 32128.0, 26624.0, 28288.0, 24960.0, 28288.0, 28288.0, 24960.0, 30208.0, 23424.0, 36352.0, 56320.0, 43776.0, 32128.0, 23424.0, 28288.0, 28288.0, 22016.0, 34304.0, 23424.0, 18304.0, 18304.0, 18304.0, 16128.0, 17152.0, 22016.0, 17152.0, 19456.0, 22016.0, 34304.0, 32128.0, 24960.0, 23424.0, 19456.0, 38656.0, 24960.0, 19456.0, 23424.0, 22016.0, 22016.0, 28288.0, 28288.0, 26624.0, 32128.0, 32128.0, 28288.0, 34304.0, 32128.0, 24960.0, 30208.0, 28288.0, 23424.0, 19456.0, 34304.0, 34304.0, 32128.0, 36352.0, 32128.0, 34304.0, 30208.0, 38656.0, 43776.0, 59904.0, 23424.0, 34304.0, 28288.0, 28288.0, 28288.0, 22016.0, 26624.0, 24960.0, 28288.0, 52992.0, 43776.0, 34304.0, 38656.0, 38656.0, 52992.0, 28288.0, 32128.0, 32128.0, 34304.0, 32128.0, 30208.0, 46592.0, 32128.0, 34304.0, 24960.0, 36352.0, 24960.0, 22016.0, 24960.0, 26624.0, 28288.0, 24960.0, 23424.0, 41216.0, 49664.0, 32128.0, 36352.0, 30208.0, 22016.0, 26624.0, 34304.0, 59904.0, 32128.0, 30208.0, 28288.0, 23424.0, 20736.0, 32128.0, 30208.0, 28288.0, 30208.0, 28288.0, 22016.0, 26624.0, 28288.0, 32128.0, 23424.0, 28288.0, 34304.0, 24960.0, 28288.0, 32128.0, 30208.0, 28288.0, 26624.0, 23424.0, 22016.0, 23424.0, 23424.0, 28288.0, 30208.0, 41216.0, 23424.0, 34304.0, 20736.0, 36352.0, 32128.0, 34304.0, 23424.0, 28288.0, 28288.0, 34304.0, 28288.0, 34304.0, 38656.0, 34304.0, 34304.0, 43776.0, 41216.0, 38656.0, 38656.0, 26624.0, 28288.0, 30208.0, 32128.0, 32128.0, 49664.0, 30208.0, 26624.0, 36352.0, 34304.0, 32128.0, 28288.0, 30208.0, 26624.0, 28288.0, 30208.0, 28288.0, 22016.0, 23424.0, 32128.0, 24960.0, 26624.0, 24960.0, 26624.0, 32128.0, 22016.0, 23424.0, 26624.0, 23424.0, 20736.0, 28288.0, 23424.0, 24960.0, 20736.0, 23424.0, 19456.0, 24960.0, 28288.0, 30208.0, 20736.0, 30208.0, 24960.0, 23424.0, 26624.0, 28288.0, 19456.0, 24960.0, 22016.0, 24960.0, 23424.0, 23424.0, 20736.0, 19456.0, 19456.0, 23424.0, 26624.0, 22016.0, 22016.0, 22016.0, 22016.0, 26624.0, 26624.0, 22016.0, 28288.0, 24960.0, 24960.0, 23424.0, 22016.0, 30208.0, 24960.0, 20736.0, 28288.0, 22016.0, 22016.0, 23424.0, 19456.0, 23424.0, 20736.0, 20736.0, 19456.0, 20736.0, 24960.0, 22016.0, 22016.0, 18304.0, 19456.0, 18304.0, 17152.0, 16128.0, 16128.0, 18304.0, 16128.0, 18304.0, 17152.0, 17152.0, 20736.0, 17152.0, 15168.0, 14272.0, 24960.0, 23424.0, 23424.0, 18304.0, 19456.0, 19456.0, 22016.0, 22016.0, 23424.0, 19456.0, 16128.0, 19456.0, 22016.0, 19456.0, 19456.0, 24960.0, 28288.0, 26624.0, 24960.0, 19456.0, 28288.0, 19456.0, 18304.0, 22016.0, 18304.0, 22016.0, 17152.0, 23424.0, 22016.0, 28288.0, 28288.0, 26624.0, 26624.0, 22016.0, 24960.0, 30208.0, 24960.0, 26624.0, 26624.0, 30208.0, 28288.0, 32128.0, 28288.0, 23424.0, 22016.0, 23424.0, 23424.0, 22016.0, 22016.0, 20736.0, 19456.0, 22016.0, 19456.0, 22016.0, 36352.0, 30208.0, 26624.0, 28288.0, 30208.0, 20736.0, 24960.0, 28288.0, 23424.0, 24960.0, 28288.0, 22016.0, 26624.0, 26624.0, 22016.0, 26624.0, 20736.0, 23424.0, 28288.0, 24960.0, 22016.0, 19456.0, 20736.0, 16128.0, 18304.0, 19456.0, 19456.0, 20736.0, 20736.0, 28288.0, 20736.0, 22016.0, 18304.0, 22016.0, 20736.0, 23424.0, 23424.0, 26624.0, 30208.0, 26624.0, 24960.0, 28288.0, 22016.0, 24960.0, 24960.0, 26624.0, 23424.0, 24960.0, 20736.0, 20736.0, 22016.0, 20736.0, 22016.0, 22016.0, 23424.0, 22016.0, 22016.0, 20736.0, 22016.0, 23424.0, 24960.0, 22016.0, 22016.0, 23424.0, 19456.0, 24960.0, 24960.0, 24960.0, 23424.0, 32128.0, 22016.0, 23424.0, 24960.0, 23424.0, 23424.0, 22016.0, 22016.0, 24960.0, 26624.0, 24960.0, 24960.0, 22016.0, 22016.0, 24960.0, 26624.0, 22016.0, 18304.0, 19456.0, 23424.0, 20736.0, 26624.0, 19456.0, 23424.0, 23424.0, 20736.0, 20736.0, 26624.0, 20736.0, 24960.0, 23424.0, 19456.0, 24960.0, 24960.0, 23424.0, 26624.0, 19456.0, 18304.0, 22016.0, 20736.0, 23424.0, 20736.0, 23424.0, 23424.0, 20736.0, 23424.0, 24960.0, 23424.0, 18304.0, 26624.0, 26624.0, 20736.0, 26624.0, 26624.0, 36352.0, 36352.0, 38656.0, 34304.0, 30208.0, 30208.0, 23424.0, 23424.0, 24960.0, 30208.0, 26624.0, 26624.0, 28288.0, 28288.0, 28288.0, 26624.0, 30208.0, 36352.0, 30208.0, 30208.0, 30208.0, 28288.0, 30208.0, 32128.0, 32128.0, 28288.0, 32128.0, 26624.0, 28288.0, 26624.0, 22016.0, 26624.0, 28288.0, 32128.0, 30208.0, 30208.0, 30208.0, 28288.0, 26624.0, 34304.0, 36352.0, 34304.0, 30208.0, 28288.0, 34304.0, 36352.0, 20736.0, 24960.0, 23424.0, 28288.0, 28288.0, 30208.0, 28288.0, 59904.0, 59904.0, 56320.0, 56320.0, 56320.0, 38656.0, 52992.0, 38656.0, 43776.0, 36352.0, 56320.0, 41216.0, 34304.0, 41216.0, 41216.0, 36352.0, 36352.0, 41216.0, 41216.0, 46592.0, 34304.0, 32128.0, 38656.0, 38656.0, 41216.0, 34304.0, 36352.0, 36352.0, 28288.0, 34304.0, 34304.0, 38656.0, 34304.0, 32128.0, 38656.0, 36352.0, 38656.0, 34304.0, 32128.0]","[10.9375, 9.5625, 9.25, 9.3125, 9.375, 9.4375, 9.375, 9.3125, 9.25, 9.375, 9.1875, 9.25, 9.4375, 9.375, 9.3125, 9.25, 9.25, 9.4375, 9.3125, 9.25, 9.3125, 9.3125, 9.375, 9.1875, 9.3125, 9.3125, 9.1875, 9.3125, 9.25, 9.1875, 9.1875, 9.25, 9.3125, 9.125, 9.25, 9.25, 9.1875, 9.25, 9.25, 9.25, 9.3125, 9.25, 9.1875, 9.1875, 9.125, 9.25, 9.25, 9.3125, 9.3125, 9.25, 9.3125, 9.3125, 9.375, 9.375, 9.375, 9.25, 9.25, 9.3125, 9.3125, 9.375, 9.3125, 9.3125, 9.3125, 9.3125, 9.375, 9.25, 9.375, 9.5, 9.375, 9.3125, 9.3125, 9.3125, 9.3125, 9.3125, 9.375, 9.3125, 9.3125, 9.4375, 9.3125, 9.3125, 9.1875, 9.375, 9.375, 9.375, 9.3125, 9.375, 9.3125, 9.4375, 9.625, 9.5625, 9.5, 9.375, 9.5, 9.3125, 9.625, 9.5625, 9.4375, 9.1875, 9.3125, 9.25, 9.3125, 9.3125, 9.1875, 9.3125, 9.125, 9.3125, 9.375, 9.375, 9.25, 9.25, 9.25, 9.3125, 9.375, 9.375, 9.25, 9.3125, 9.125, 9.0, 9.125, 9.125, 9.25, 9.1875, 9.0625, 9.125, 9.25, 9.125, 9.0625, 9.0, 9.0, 9.125, 9.0, 9.125, 9.125, 9.0, 9.0625, 9.125, 9.125, 9.125, 9.0625, 8.9375, 8.9375, 9.0, 9.1875, 9.1875, 9.0625, 9.0625, 9.0, 9.875, 9.5625, 9.25, 9.4375, 9.25, 9.1875, 9.1875, 9.25, 9.1875, 9.25, 9.0625, 9.1875, 9.1875, 9.25, 9.0625, 9.1875, 9.1875, 9.0, 9.0625, 9.1875, 9.1875, 9.125, 9.1875, 9.125, 9.1875, 9.125, 9.0625, 9.1875, 9.1875, 8.9375, 9.125, 9.25, 9.0, 9.125, 9.0, 9.0625, 8.9375, 9.0625, 9.25, 9.25, 9.375, 9.25, 9.0625, 9.1875, 8.9375, 9.0, 9.0625, 9.0, 9.0, 8.9375, 9.125, 9.0625, 9.0, 8.9375, 9.0, 9.0, 9.0, 9.125, 9.1875, 9.125, 9.0, 9.0625, 9.125, 9.5625, 9.3125, 9.0625, 9.0, 8.8125, 8.9375, 8.9375, 9.3125, 9.0, 9.0, 8.9375, 8.9375, 8.8125, 8.9375, 8.9375, 8.875, 9.0625, 8.9375, 8.875, 9.0625, 9.0, 9.0625, 8.875, 8.9375, 9.0, 9.0, 9.0625, 9.125, 8.9375, 8.9375, 9.0, 8.9375, 9.0, 9.0, 8.875, 8.875, 9.0, 9.125, 8.9375, 9.0625, 8.8125, 9.0625, 9.125, 9.0625, 8.875, 9.0, 9.0, 9.125, 9.0625, 9.1875, 9.1875, 9.0, 9.0, 9.125, 9.0, 8.9375, 9.0, 8.875, 9.0, 8.875, 8.875, 9.0, 9.3125, 9.125, 9.0, 9.1875, 9.1875, 9.0, 9.0, 9.0625, 9.0625, 9.0, 9.0625, 9.125, 9.0, 9.0625, 9.25, 9.0625, 9.0625, 9.125, 9.1875, 9.1875, 9.125, 9.25, 9.125, 9.0625, 8.9375, 9.1875, 9.0625, 9.0625, 8.875, 8.9375, 8.875, 9.0, 9.0625, 9.125, 8.875, 9.0625, 9.0625, 9.0625, 9.125, 9.1875, 9.25, 9.1875, 9.1875, 9.1875, 9.125, 9.125, 9.0, 8.9375, 8.9375, 9.0625, 9.1875, 9.125, 9.0625, 9.0, 9.0625, 9.125, 9.125, 9.125, 9.125, 9.0625, 9.25, 9.3125, 9.25, 9.5, 9.4375, 9.25, 9.375, 9.125, 9.125, 9.125, 9.125, 9.1875, 9.1875, 9.1875, 9.125, 9.1875, 9.3125, 9.1875, 9.1875, 9.125, 9.125, 9.0625, 9.125, 9.0625, 8.9375, 9.125, 9.0625, 9.125, 9.0625, 8.9375, 9.0625, 8.9375, 8.9375, 8.8125, 9.1875, 9.0, 9.0625, 8.875, 9.0625, 8.9375, 9.0, 9.0625, 9.125, 9.0, 8.875, 8.9375, 9.0625, 9.0, 9.0, 9.0625, 9.125, 9.25, 9.25, 9.1875, 9.4375, 9.0625, 9.0625, 9.1875, 9.0625, 9.1875, 9.0, 9.3125, 9.375, 9.5, 9.5, 9.4375, 9.25, 9.3125, 9.375, 9.5625, 9.5, 9.375, 9.375, 9.5, 9.5, 9.625, 9.5, 9.3125, 9.375, 9.125, 9.125, 9.125, 9.0, 9.125, 9.0625, 9.1875, 9.0625, 9.125, 9.1875, 9.3125, 9.1875, 9.1875, 9.1875, 9.0, 9.25, 9.25, 9.1875, 9.25, 9.375, 9.25, 9.25, 9.25, 9.125, 9.1875, 9.125, 9.25, 9.375, 9.3125, 9.1875, 9.1875, 9.1875, 9.0625, 9.0625, 9.0625, 9.0625, 9.1875, 9.0625, 9.3125, 9.1875, 9.25, 9.125, 9.1875, 9.125, 9.25, 9.1875, 9.3125, 9.375, 9.375, 9.3125, 9.375, 9.25, 9.3125, 9.375, 9.3125, 9.1875, 9.375, 9.1875, 9.25, 9.25, 9.125, 9.25, 9.1875, 9.1875, 9.1875, 9.1875, 9.125, 9.1875, 9.25, 9.375, 9.1875, 9.1875, 9.3125, 9.1875, 9.375, 9.375, 9.4375, 9.375, 9.5625, 9.375, 9.375, 9.4375, 9.3125, 9.375, 9.3125, 9.375, 9.375, 9.5, 9.5, 9.375, 9.3125, 9.3125, 9.3125, 9.375, 9.25, 9.1875, 9.375, 9.5, 9.375, 9.4375, 9.25, 9.3125, 9.375, 9.3125, 9.3125, 9.375, 9.1875, 9.375, 9.4375, 9.125, 9.3125, 9.375, 9.3125, 9.4375, 9.25, 9.1875, 9.375, 9.25, 9.375, 9.25, 9.375, 9.25, 9.125, 9.25, 9.25, 9.25, 9.125, 9.25, 9.25, 9.0625, 9.25, 9.25, 9.375, 9.375, 9.375, 9.1875, 9.1875, 9.25, 9.125, 9.1875, 9.1875, 9.3125, 9.1875, 9.1875, 9.1875, 9.1875, 9.125, 9.125, 9.3125, 9.3125, 9.25, 9.3125, 9.25, 9.1875, 9.375, 9.375, 9.375, 9.25, 9.375, 9.1875, 9.1875, 9.1875, 9.125, 9.1875, 9.125, 9.375, 9.1875, 9.1875, 9.3125, 9.25, 9.3125, 9.4375, 9.5, 9.3125, 9.25, 9.3125, 9.375, 9.4375, 9.0625, 9.125, 9.1875, 9.1875, 9.3125, 9.25, 9.25, 9.5625, 9.5, 9.4375, 9.3125, 9.625, 9.375, 9.4375, 9.125, 9.25, 9.3125, 9.4375, 9.1875, 9.125, 9.1875, 9.25, 9.1875, 9.25, 9.25, 9.25, 9.4375, 9.1875, 9.125, 9.3125, 9.1875, 9.3125, 9.3125, 9.25, 9.1875, 9.0625, 9.375, 9.3125, 9.25, 9.1875, 9.25, 9.3125, 9.25, 9.25, 9.125, 9.25]","[56320.0, 14272.0, 10432.0, 11072.0, 11840.0, 12544.0, 11840.0, 11072.0, 10432.0, 11840.0, 9792.0, 10432.0, 12544.0, 11840.0, 11072.0, 10432.0, 10432.0, 12544.0, 11072.0, 10432.0, 11072.0, 11072.0, 11840.0, 9792.0, 11072.0, 11072.0, 9792.0, 11072.0, 10432.0, 9792.0, 9792.0, 10432.0, 11072.0, 9216.0, 10432.0, 10432.0, 9792.0, 10432.0, 10432.0, 10432.0, 11072.0, 10432.0, 9792.0, 9792.0, 9216.0, 10432.0, 10432.0, 11072.0, 11072.0, 10432.0, 11072.0, 11072.0, 11840.0, 11840.0, 11840.0, 10432.0, 10432.0, 11072.0, 11072.0, 11840.0, 11072.0, 11072.0, 11072.0, 11072.0, 11840.0, 10432.0, 11840.0, 13376.0, 11840.0, 11072.0, 11072.0, 11072.0, 11072.0, 11072.0, 11840.0, 11072.0, 11072.0, 12544.0, 11072.0, 11072.0, 9792.0, 11840.0, 11840.0, 11840.0, 11072.0, 11840.0, 11072.0, 12544.0, 15168.0, 14272.0, 13376.0, 11840.0, 13376.0, 11072.0, 15168.0, 14272.0, 12544.0, 9792.0, 11072.0, 10432.0, 11072.0, 11072.0, 9792.0, 11072.0, 9216.0, 11072.0, 11840.0, 11840.0, 10432.0, 10432.0, 10432.0, 11072.0, 11840.0, 11840.0, 10432.0, 11072.0, 9216.0, 8128.0, 9216.0, 9216.0, 10432.0, 9792.0, 8640.0, 9216.0, 10432.0, 9216.0, 8640.0, 8128.0, 8128.0, 9216.0, 8128.0, 9216.0, 9216.0, 8128.0, 8640.0, 9216.0, 9216.0, 9216.0, 8640.0, 7616.0, 7616.0, 8128.0, 9792.0, 9792.0, 8640.0, 8640.0, 8128.0, 19456.0, 14272.0, 10432.0, 12544.0, 10432.0, 9792.0, 9792.0, 10432.0, 9792.0, 10432.0, 8640.0, 9792.0, 9792.0, 10432.0, 8640.0, 9792.0, 9792.0, 8128.0, 8640.0, 9792.0, 9792.0, 9216.0, 9792.0, 9216.0, 9792.0, 9216.0, 8640.0, 9792.0, 9792.0, 7616.0, 9216.0, 10432.0, 8128.0, 9216.0, 8128.0, 8640.0, 7616.0, 8640.0, 10432.0, 10432.0, 11840.0, 10432.0, 8640.0, 9792.0, 7616.0, 8128.0, 8640.0, 8128.0, 8128.0, 7616.0, 9216.0, 8640.0, 8128.0, 7616.0, 8128.0, 8128.0, 8128.0, 9216.0, 9792.0, 9216.0, 8128.0, 8640.0, 9216.0, 14272.0, 11072.0, 8640.0, 8128.0, 6720.0, 7616.0, 7616.0, 11072.0, 8128.0, 8128.0, 7616.0, 7616.0, 6720.0, 7616.0, 7616.0, 7168.0, 8640.0, 7616.0, 7168.0, 8640.0, 8128.0, 8640.0, 7168.0, 7616.0, 8128.0, 8128.0, 8640.0, 9216.0, 7616.0, 7616.0, 8128.0, 7616.0, 8128.0, 8128.0, 7168.0, 7168.0, 8128.0, 9216.0, 7616.0, 8640.0, 6720.0, 8640.0, 9216.0, 8640.0, 7168.0, 8128.0, 8128.0, 9216.0, 8640.0, 9792.0, 9792.0, 8128.0, 8128.0, 9216.0, 8128.0, 7616.0, 8128.0, 7168.0, 8128.0, 7168.0, 7168.0, 8128.0, 11072.0, 9216.0, 8128.0, 9792.0, 9792.0, 8128.0, 8128.0, 8640.0, 8640.0, 8128.0, 8640.0, 9216.0, 8128.0, 8640.0, 10432.0, 8640.0, 8640.0, 9216.0, 9792.0, 9792.0, 9216.0, 10432.0, 9216.0, 8640.0, 7616.0, 9792.0, 8640.0, 8640.0, 7168.0, 7616.0, 7168.0, 8128.0, 8640.0, 9216.0, 7168.0, 8640.0, 8640.0, 8640.0, 9216.0, 9792.0, 10432.0, 9792.0, 9792.0, 9792.0, 9216.0, 9216.0, 8128.0, 7616.0, 7616.0, 8640.0, 9792.0, 9216.0, 8640.0, 8128.0, 8640.0, 9216.0, 9216.0, 9216.0, 9216.0, 8640.0, 10432.0, 11072.0, 10432.0, 13376.0, 12544.0, 10432.0, 11840.0, 9216.0, 9216.0, 9216.0, 9216.0, 9792.0, 9792.0, 9792.0, 9216.0, 9792.0, 11072.0, 9792.0, 9792.0, 9216.0, 9216.0, 8640.0, 9216.0, 8640.0, 7616.0, 9216.0, 8640.0, 9216.0, 8640.0, 7616.0, 8640.0, 7616.0, 7616.0, 6720.0, 9792.0, 8128.0, 8640.0, 7168.0, 8640.0, 7616.0, 8128.0, 8640.0, 9216.0, 8128.0, 7168.0, 7616.0, 8640.0, 8128.0, 8128.0, 8640.0, 9216.0, 10432.0, 10432.0, 9792.0, 12544.0, 8640.0, 8640.0, 9792.0, 8640.0, 9792.0, 8128.0, 11072.0, 11840.0, 13376.0, 13376.0, 12544.0, 10432.0, 11072.0, 11840.0, 14272.0, 13376.0, 11840.0, 11840.0, 13376.0, 13376.0, 15168.0, 13376.0, 11072.0, 11840.0, 9216.0, 9216.0, 9216.0, 8128.0, 9216.0, 8640.0, 9792.0, 8640.0, 9216.0, 9792.0, 11072.0, 9792.0, 9792.0, 9792.0, 8128.0, 10432.0, 10432.0, 9792.0, 10432.0, 11840.0, 10432.0, 10432.0, 10432.0, 9216.0, 9792.0, 9216.0, 10432.0, 11840.0, 11072.0, 9792.0, 9792.0, 9792.0, 8640.0, 8640.0, 8640.0, 8640.0, 9792.0, 8640.0, 11072.0, 9792.0, 10432.0, 9216.0, 9792.0, 9216.0, 10432.0, 9792.0, 11072.0, 11840.0, 11840.0, 11072.0, 11840.0, 10432.0, 11072.0, 11840.0, 11072.0, 9792.0, 11840.0, 9792.0, 10432.0, 10432.0, 9216.0, 10432.0, 9792.0, 9792.0, 9792.0, 9792.0, 9216.0, 9792.0, 10432.0, 11840.0, 9792.0, 9792.0, 11072.0, 9792.0, 11840.0, 11840.0, 12544.0, 11840.0, 14272.0, 11840.0, 11840.0, 12544.0, 11072.0, 11840.0, 11072.0, 11840.0, 11840.0, 13376.0, 13376.0, 11840.0, 11072.0, 11072.0, 11072.0, 11840.0, 10432.0, 9792.0, 11840.0, 13376.0, 11840.0, 12544.0, 10432.0, 11072.0, 11840.0, 11072.0, 11072.0, 11840.0, 9792.0, 11840.0, 12544.0, 9216.0, 11072.0, 11840.0, 11072.0, 12544.0, 10432.0, 9792.0, 11840.0, 10432.0, 11840.0, 10432.0, 11840.0, 10432.0, 9216.0, 10432.0, 10432.0, 10432.0, 9216.0, 10432.0, 10432.0, 8640.0, 10432.0, 10432.0, 11840.0, 11840.0, 11840.0, 9792.0, 9792.0, 10432.0, 9216.0, 9792.0, 9792.0, 11072.0, 9792.0, 9792.0, 9792.0, 9792.0, 9216.0, 9216.0, 11072.0, 11072.0, 10432.0, 11072.0, 10432.0, 9792.0, 11840.0, 11840.0, 11840.0, 10432.0, 11840.0, 9792.0, 9792.0, 9792.0, 9216.0, 9792.0, 9216.0, 11840.0, 9792.0, 9792.0, 11072.0, 10432.0, 11072.0, 12544.0, 13376.0, 11072.0, 10432.0, 11072.0, 11840.0, 12544.0, 8640.0, 9216.0, 9792.0, 9792.0, 11072.0, 10432.0, 10432.0, 14272.0, 13376.0, 12544.0, 11072.0, 15168.0, 11840.0, 12544.0, 9216.0, 10432.0, 11072.0, 12544.0, 9792.0, 9216.0, 9792.0, 10432.0, 9792.0, 10432.0, 10432.0, 10432.0, 12544.0, 9792.0, 9216.0, 11072.0, 9792.0, 11072.0, 11072.0, 10432.0, 9792.0, 8640.0, 11840.0, 11072.0, 10432.0, 9792.0, 10432.0, 11072.0, 10432.0, 10432.0, 9216.0, 10432.0]","[10.9375, 9.125, 8.9375, 9.0625, 9.0625, 9.1875, 9.1875, 9.125, 9.125, 9.25, 9.0625, 9.0, 9.25, 9.1875, 9.3125, 9.25, 9.25, 9.875, 9.375, 9.0625, 9.5625, 9.375, 9.4375, 9.25, 9.5625, 9.375, 9.375, 9.3125, 9.125, 9.25, 9.375, 9.375, 9.3125, 9.25, 9.3125, 9.4375, 9.375, 9.5625, 9.5625, 10.125, 10.0, 9.8125, 9.625, 10.0, 10.875, 11.125, 10.125, 10.1875, 10.1875, 9.625, 9.8125, 10.125, 10.25, 10.125, 10.4375, 9.6875, 9.625, 9.75, 10.1875, 10.4375, 10.6875, 10.375, 10.3125, 9.9375, 9.875, 10.1875, 10.1875, 11.3125, 10.8125, 9.4375, 9.375, 10.8125, 9.4375, 9.25, 9.3125, 9.0, 9.125, 9.1875, 9.1875, 9.1875, 9.1875, 9.625, 9.625, 9.4375, 9.5625, 9.8125, 10.1875, 10.75, 11.1875, 10.875, 11.0, 10.5625, 11.1875, 9.6875, 10.9375, 10.625, 9.875, 10.0625, 10.5625, 10.0625, 10.125, 10.0625, 10.125, 9.875, 9.5, 9.875, 10.5625, 10.9375, 10.625, 10.0, 10.125, 10.1875, 10.6875, 11.0625, 10.875, 10.5625, 10.125, 10.0625, 10.5625, 10.125, 10.0, 10.0625, 9.5625, 10.75, 11.0625, 10.6875, 10.1875, 10.0, 10.3125, 9.875, 9.5625, 9.6875, 9.0, 8.8125, 8.8125, 8.9375, 8.875, 9.0625, 9.1875, 9.125, 9.0625, 9.3125, 9.625, 9.8125, 9.75, 9.3125, 9.0625, 11.375, 10.8125, 10.0625, 10.5625, 10.5, 10.625, 11.25, 11.0625, 10.6875, 11.1875, 10.8125, 11.125, 10.875, 10.75, 10.1875, 10.6875, 10.75, 10.5625, 10.5625, 11.0625, 10.75, 11.25, 10.875, 10.875, 11.3125, 11.875, 11.625, 11.5, 11.8125, 10.25, 10.625, 11.0, 10.1875, 10.375, 10.3125, 10.5, 10.0625, 11.0, 12.1875, 12.125, 12.375, 11.875, 11.125, 11.9375, 10.5625, 10.4375, 10.875, 11.125, 10.8125, 10.375, 11.0, 10.875, 11.4375, 10.375, 10.4375, 11.25, 10.1875, 9.875, 10.4375, 10.375, 9.75, 10.3125, 11.125, 13.1875, 12.375, 10.4375, 10.375, 10.25, 10.625, 11.125, 11.875, 11.1875, 10.4375, 10.0, 9.5, 9.25, 9.625, 9.5, 9.8125, 10.1875, 10.0625, 9.5625, 10.125, 10.125, 10.0, 9.9375, 10.0625, 10.4375, 10.375, 10.3125, 10.625, 10.0, 9.75, 9.6875, 9.6875, 9.875, 10.1875, 10.0, 10.25, 10.625, 10.625, 10.5, 10.125, 9.875, 10.125, 10.1875, 10.0625, 9.6875, 9.9375, 10.0625, 10.3125, 10.625, 10.9375, 11.5, 10.6875, 10.75, 11.75, 11.6875, 11.0625, 10.625, 10.0625, 10.25, 10.9375, 10.8125, 11.5625, 11.75, 10.9375, 10.6875, 10.9375, 11.25, 11.0625, 10.5, 10.75, 10.4375, 10.3125, 10.25, 10.375, 10.0625, 10.4375, 10.625, 10.25, 10.25, 10.1875, 10.625, 10.875, 10.1875, 10.25, 10.0625, 9.4375, 9.6875, 10.125, 9.9375, 9.8125, 9.5, 9.5, 9.6875, 9.75, 9.9375, 10.125, 9.875, 10.0625, 10.125, 10.1875, 10.0, 10.1875, 10.25, 10.1875, 10.125, 9.875, 9.8125, 9.9375, 9.625, 9.5625, 9.75, 10.125, 10.375, 10.25, 9.9375, 10.0625, 10.3125, 9.9375, 10.3125, 9.9375, 10.0625, 9.9375, 10.3125, 10.375, 10.0625, 10.4375, 10.25, 9.875, 10.375, 10.0, 10.1875, 9.9375, 10.0625, 9.9375, 9.6875, 9.75, 9.875, 9.75, 10.125, 10.0, 9.8125, 9.375, 9.4375, 9.375, 9.1875, 9.0, 9.1875, 9.3125, 9.375, 9.5, 9.125, 9.0625, 9.0, 8.75, 8.6875, 8.5625, 9.4375, 9.6875, 9.6875, 9.125, 9.3125, 9.1875, 9.375, 9.625, 9.6875, 9.5, 9.1875, 9.3125, 9.5, 9.5, 9.4375, 9.6875, 9.875, 9.6875, 9.875, 10.0, 9.9375, 9.625, 9.375, 9.6875, 9.5, 9.5625, 9.375, 9.8125, 9.9375, 10.25, 10.5, 10.5, 10.1875, 10.1875, 10.25, 10.625, 10.625, 10.625, 10.5, 10.6875, 10.375, 10.5625, 10.5, 10.125, 9.9375, 9.625, 9.625, 9.3125, 9.5, 9.6875, 9.125, 9.5625, 9.4375, 9.625, 10.5, 10.25, 10.0, 10.5, 10.1875, 10.0625, 10.125, 10.1875, 10.375, 10.3125, 10.25, 9.875, 9.875, 9.9375, 9.625, 10.0, 9.5625, 9.75, 10.0625, 10.0, 9.8125, 9.375, 9.3125, 9.25, 9.1875, 9.25, 9.3125, 9.625, 9.5, 9.6875, 9.375, 9.375, 9.25, 9.5625, 9.75, 9.8125, 10.0625, 10.375, 10.3125, 10.1875, 10.0625, 10.125, 9.9375, 10.125, 10.125, 9.875, 10.3125, 10.125, 9.5625, 9.5625, 9.4375, 9.5, 9.6875, 9.625, 9.625, 9.5, 9.5625, 9.4375, 9.75, 9.8125, 9.8125, 9.5625, 9.6875, 9.75, 9.5, 9.75, 10.0, 10.0, 10.0625, 10.3125, 10.0625, 10.0625, 10.0625, 9.8125, 9.5625, 9.6875, 9.8125, 9.8125, 10.125, 10.0625, 9.9375, 9.5625, 9.5, 9.6875, 9.875, 9.75, 9.5625, 9.8125, 9.6875, 9.6875, 10.0625, 9.5, 9.75, 9.75, 9.625, 9.5625, 9.6875, 9.5, 9.6875, 10.0, 9.4375, 9.75, 9.625, 9.5, 9.625, 9.375, 9.25, 9.375, 9.3125, 9.4375, 9.4375, 9.5, 9.375, 9.1875, 9.4375, 9.625, 9.4375, 9.3125, 9.5625, 9.5, 9.375, 9.5, 9.5, 10.5625, 10.4375, 10.25, 10.125, 9.875, 9.8125, 9.5, 9.4375, 9.625, 9.9375, 9.6875, 9.75, 9.625, 9.9375, 9.6875, 9.75, 10.25, 10.5625, 10.25, 10.0625, 9.9375, 10.0, 10.625, 10.6875, 10.4375, 10.3125, 10.625, 10.0625, 10.125, 10.0625, 9.75, 10.0, 10.25, 10.5, 10.125, 9.9375, 10.0, 10.0, 10.0625, 10.125, 10.25, 9.875, 9.875, 9.875, 9.875, 10.125, 9.75, 9.5625, 9.5625, 9.5625, 9.75, 9.75, 9.875, 11.1875, 11.1875, 11.0625, 10.75, 10.5625, 10.25, 10.3125, 10.0625, 10.375, 10.3125, 10.4375, 10.25, 10.125, 10.0, 10.1875, 10.3125, 10.375, 10.125, 10.125, 10.125, 9.8125, 9.9375, 10.125, 10.125, 10.0625, 10.0, 9.875, 9.9375, 9.875, 10.0, 9.875, 9.8125, 9.8125, 9.875, 9.875, 9.75, 9.625, 9.5, 9.8125]","[56320.0, 9216.0, 7616.0, 8640.0, 8640.0, 9792.0, 9792.0, 9216.0, 9216.0, 10432.0, 8640.0, 8128.0, 10432.0, 9792.0, 11072.0, 10432.0, 10432.0, 19456.0, 11840.0, 8640.0, 14272.0, 11840.0, 12544.0, 10432.0, 14272.0, 11840.0, 11840.0, 11072.0, 9216.0, 10432.0, 11840.0, 11840.0, 11072.0, 10432.0, 11072.0, 12544.0, 11840.0, 14272.0, 14272.0, 24960.0, 22016.0, 18304.0, 15168.0, 22016.0, 52992.0, 68096.0, 24960.0, 26624.0, 26624.0, 15168.0, 18304.0, 24960.0, 28288.0, 24960.0, 34304.0, 16128.0, 15168.0, 17152.0, 26624.0, 34304.0, 43776.0, 32128.0, 30208.0, 20736.0, 19456.0, 26624.0, 26624.0, 81920.0, 49664.0, 12544.0, 11840.0, 49664.0, 12544.0, 10432.0, 11072.0, 8128.0, 9216.0, 9792.0, 9792.0, 9792.0, 9792.0, 15168.0, 15168.0, 12544.0, 14272.0, 18304.0, 26624.0, 46592.0, 72192.0, 52992.0, 59904.0, 38656.0, 72192.0, 16128.0, 56320.0, 41216.0, 19456.0, 23424.0, 38656.0, 23424.0, 24960.0, 23424.0, 24960.0, 19456.0, 13376.0, 19456.0, 38656.0, 56320.0, 41216.0, 22016.0, 24960.0, 26624.0, 43776.0, 63744.0, 52992.0, 38656.0, 24960.0, 23424.0, 38656.0, 24960.0, 22016.0, 23424.0, 14272.0, 46592.0, 63744.0, 43776.0, 26624.0, 22016.0, 30208.0, 19456.0, 14272.0, 16128.0, 8128.0, 6720.0, 6720.0, 7616.0, 7168.0, 8640.0, 9792.0, 9216.0, 8640.0, 11072.0, 15168.0, 18304.0, 17152.0, 11072.0, 8640.0, 87040.0, 49664.0, 23424.0, 38656.0, 36352.0, 41216.0, 76800.0, 63744.0, 43776.0, 72192.0, 49664.0, 68096.0, 52992.0, 46592.0, 26624.0, 43776.0, 46592.0, 38656.0, 38656.0, 63744.0, 46592.0, 76800.0, 52992.0, 52992.0, 81920.0, 144384.0, 112128.0, 98816.0, 135168.0, 28288.0, 41216.0, 59904.0, 26624.0, 32128.0, 30208.0, 36352.0, 23424.0, 59904.0, 196608.0, 184320.0, 237568.0, 144384.0, 68096.0, 153600.0, 38656.0, 34304.0, 52992.0, 68096.0, 49664.0, 32128.0, 59904.0, 52992.0, 92672.0, 32128.0, 34304.0, 76800.0, 26624.0, 19456.0, 34304.0, 32128.0, 17152.0, 30208.0, 68096.0, 536576.0, 237568.0, 34304.0, 32128.0, 28288.0, 41216.0, 68096.0, 144384.0, 72192.0, 34304.0, 22016.0, 13376.0, 10432.0, 15168.0, 13376.0, 18304.0, 26624.0, 23424.0, 14272.0, 24960.0, 24960.0, 22016.0, 20736.0, 23424.0, 34304.0, 32128.0, 30208.0, 41216.0, 22016.0, 17152.0, 16128.0, 16128.0, 19456.0, 26624.0, 22016.0, 28288.0, 41216.0, 41216.0, 36352.0, 24960.0, 19456.0, 24960.0, 26624.0, 23424.0, 16128.0, 20736.0, 23424.0, 30208.0, 41216.0, 56320.0, 98816.0, 43776.0, 46592.0, 126976.0, 119296.0, 63744.0, 41216.0, 23424.0, 28288.0, 56320.0, 49664.0, 105472.0, 126976.0, 56320.0, 43776.0, 56320.0, 76800.0, 63744.0, 36352.0, 46592.0, 34304.0, 30208.0, 28288.0, 32128.0, 23424.0, 34304.0, 41216.0, 28288.0, 28288.0, 26624.0, 41216.0, 52992.0, 26624.0, 28288.0, 23424.0, 12544.0, 16128.0, 24960.0, 20736.0, 18304.0, 13376.0, 13376.0, 16128.0, 17152.0, 20736.0, 24960.0, 19456.0, 23424.0, 24960.0, 26624.0, 22016.0, 26624.0, 28288.0, 26624.0, 24960.0, 19456.0, 18304.0, 20736.0, 15168.0, 14272.0, 17152.0, 24960.0, 32128.0, 28288.0, 20736.0, 23424.0, 30208.0, 20736.0, 30208.0, 20736.0, 23424.0, 20736.0, 30208.0, 32128.0, 23424.0, 34304.0, 28288.0, 19456.0, 32128.0, 22016.0, 26624.0, 20736.0, 23424.0, 20736.0, 16128.0, 17152.0, 19456.0, 17152.0, 24960.0, 22016.0, 18304.0, 11840.0, 12544.0, 11840.0, 9792.0, 8128.0, 9792.0, 11072.0, 11840.0, 13376.0, 9216.0, 8640.0, 8128.0, 6336.0, 5952.0, 5248.0, 12544.0, 16128.0, 16128.0, 9216.0, 11072.0, 9792.0, 11840.0, 15168.0, 16128.0, 13376.0, 9792.0, 11072.0, 13376.0, 13376.0, 12544.0, 16128.0, 19456.0, 16128.0, 19456.0, 22016.0, 20736.0, 15168.0, 11840.0, 16128.0, 13376.0, 14272.0, 11840.0, 18304.0, 20736.0, 28288.0, 36352.0, 36352.0, 26624.0, 26624.0, 28288.0, 41216.0, 41216.0, 41216.0, 36352.0, 43776.0, 32128.0, 38656.0, 36352.0, 24960.0, 20736.0, 15168.0, 15168.0, 11072.0, 13376.0, 16128.0, 9216.0, 14272.0, 12544.0, 15168.0, 36352.0, 28288.0, 22016.0, 36352.0, 26624.0, 23424.0, 24960.0, 26624.0, 32128.0, 30208.0, 28288.0, 19456.0, 19456.0, 20736.0, 15168.0, 22016.0, 14272.0, 17152.0, 23424.0, 22016.0, 18304.0, 11840.0, 11072.0, 10432.0, 9792.0, 10432.0, 11072.0, 15168.0, 13376.0, 16128.0, 11840.0, 11840.0, 10432.0, 14272.0, 17152.0, 18304.0, 23424.0, 32128.0, 30208.0, 26624.0, 23424.0, 24960.0, 20736.0, 24960.0, 24960.0, 19456.0, 30208.0, 24960.0, 14272.0, 14272.0, 12544.0, 13376.0, 16128.0, 15168.0, 15168.0, 13376.0, 14272.0, 12544.0, 17152.0, 18304.0, 18304.0, 14272.0, 16128.0, 17152.0, 13376.0, 17152.0, 22016.0, 22016.0, 23424.0, 30208.0, 23424.0, 23424.0, 23424.0, 18304.0, 14272.0, 16128.0, 18304.0, 18304.0, 24960.0, 23424.0, 20736.0, 14272.0, 13376.0, 16128.0, 19456.0, 17152.0, 14272.0, 18304.0, 16128.0, 16128.0, 23424.0, 13376.0, 17152.0, 17152.0, 15168.0, 14272.0, 16128.0, 13376.0, 16128.0, 22016.0, 12544.0, 17152.0, 15168.0, 13376.0, 15168.0, 11840.0, 10432.0, 11840.0, 11072.0, 12544.0, 12544.0, 13376.0, 11840.0, 9792.0, 12544.0, 15168.0, 12544.0, 11072.0, 14272.0, 13376.0, 11840.0, 13376.0, 13376.0, 38656.0, 34304.0, 28288.0, 24960.0, 19456.0, 18304.0, 13376.0, 12544.0, 15168.0, 20736.0, 16128.0, 17152.0, 15168.0, 20736.0, 16128.0, 17152.0, 28288.0, 38656.0, 28288.0, 23424.0, 20736.0, 22016.0, 41216.0, 43776.0, 34304.0, 30208.0, 41216.0, 23424.0, 24960.0, 23424.0, 17152.0, 22016.0, 28288.0, 36352.0, 24960.0, 20736.0, 22016.0, 22016.0, 23424.0, 24960.0, 28288.0, 19456.0, 19456.0, 19456.0, 19456.0, 24960.0, 17152.0, 14272.0, 14272.0, 14272.0, 17152.0, 17152.0, 19456.0, 72192.0, 72192.0, 63744.0, 46592.0, 38656.0, 28288.0, 30208.0, 23424.0, 32128.0, 30208.0, 34304.0, 28288.0, 24960.0, 22016.0, 26624.0, 30208.0, 32128.0, 24960.0, 24960.0, 24960.0, 18304.0, 20736.0, 24960.0, 24960.0, 23424.0, 22016.0, 19456.0, 20736.0, 19456.0, 22016.0, 19456.0, 18304.0, 18304.0, 19456.0, 19456.0, 17152.0, 15168.0, 13376.0, 18304.0]","[0.0, 0.001969042234122753, 0.0015321477549150586, 0.0010920010972768068, 0.001854579197242856, 0.0011987141333520412, 0.001739697763696313, 0.0018580758478492498, 0.0023300438188016415, 0.002026953035965562, 0.0013934045564383268, 0.001804511295631528, 0.0013672409113496542, 0.001560831326059997, 0.0009803654393181205, 0.0008521868148818612, 0.0004896626342087984, 0.00016385831986553967, 0.001507262233644724, 0.0020758789032697678, 0.000164780838531442, 0.001583012635819614, 0.0004089310532435775, 0.001249253167770803, 0.0007102661184035242, 0.0009306654101237655, 0.0005717085441574454, 0.001014977809973061, 0.0014548448380082846, 0.0011245199711993337, 0.0004904498346149921, 0.0006272841128520668, 0.001361433300189674, 0.001960570691153407, 0.001484780921600759, 0.0007659900584258139, 0.0010328332427889109, 0.0010065288515761495, 0.0009365100995637476, 0.0007125239935703576, 0.0011506533483043313, 0.0012295418418943882, 0.0020503567066043615, 0.0014568043407052755, 0.0012005456956103444, 0.0013420613249763846, 0.0015307238791137934, 0.001158908475190401, 0.0010392735712230206, 0.0019227071898058057, 0.0023762700147926807, 0.001989588839933276, 0.002166401594877243, 0.0016951470170170069, 0.0017511696787551045, 0.002219299552962184, 0.0024479138664901257, 0.0023649658542126417, 0.0021895014215260744, 0.0026228073984384537, 0.0021611270494759083, 0.0026222344022244215, 0.002324627246707678, 0.00250647054053843, 0.002347610192373395, 0.0030982671305537224, 0.0024408972822129726, 0.0034803415182977915, 0.002736951457336545, 0.0037894388660788536, 0.00343933398835361, 0.003039097646251321, 0.0033390808384865522, 0.0031376187689602375, 0.003257329110056162, 0.0035539516247808933, 0.003949317149817944, 0.0034735517110675573, 0.0032228988129645586, 0.00424767192453146, 0.0034327455796301365, 0.0031407892238348722, 0.0030594405252486467, 0.0035832489375025034, 0.0037860083393752575, 0.002957283752039075, 0.0034596375189721584, 0.0023799752816557884, 0.0019383548060432076, 0.002436420414596796, 0.003206533845514059, 0.0031655067577958107, 0.0037046184297651052, 0.004237056244164705, 0.0037073383573442698, 0.002995561109855771, 0.002971646608784795, 0.004242274910211563, 0.004865188151597977, 0.003792875912040472, 0.0042345100082457066, 0.0037675064522773027, 0.004293018952012062, 0.005231750197708607, 0.005659603513777256, 0.004271527752280235, 0.004812951199710369, 0.005249056965112686, 0.006112702656537294, 0.0057223825715482235, 0.00530263502150774, 0.005435532424598932, 0.004912127740681171, 0.004742953926324844, 0.006282234564423561, 0.0074397060088813305, 0.00577034056186676, 0.0071176327764987946, 0.007473514415323734, 0.00711237546056509, 0.006559786852449179, 0.006623954977840185, 0.006230272818356752, 0.0074225678108632565, 0.006374458782374859, 0.006906718481332064, 0.006677386816591024, 0.007995180785655975, 0.007902417331933975, 0.008114257827401161, 0.006670692935585976, 0.008156651630997658, 0.009402760304510593, 0.009838754311203957, 0.009995618835091591, 0.010964134708046913, 0.00971114169806242, 0.009754355065524578, 0.010878138244152069, 0.00887759868055582, 0.009145587682723999, 0.009219237603247166, 0.008769779466092587, 0.00952120404690504, 0.009096886962652206, 0.009334282018244267, 0.009995914064347744, 0.007920683361589909, 0.010438927449285984, 0.012366282753646374, 0.014198949560523033, 0.012362823821604252, 0.013291504234075546, 0.012842489406466484, 0.012179398909211159, 0.013261230662465096, 0.012648890726268291, 0.012306763790547848, 0.01128816232085228, 0.011907356791198254, 0.011804338544607162, 0.012554017826914787, 0.013126589357852936, 0.012165050022304058, 0.013300559483468533, 0.011945298872888088, 0.011281995102763176, 0.0127572575584054, 0.011410477571189404, 0.009808206930756569, 0.012534971348941326, 0.013120130635797977, 0.014595746994018555, 0.014496320858597755, 0.015082254074513912, 0.014251652173697948, 0.01345094945281744, 0.012552185915410519, 0.01305883377790451, 0.012459959834814072, 0.010775037109851837, 0.014413422904908657, 0.01307904813438654, 0.013780822046101093, 0.013234371319413185, 0.013755572028458118, 0.013204202055931091, 0.012047860771417618, 0.01296889130026102, 0.015076200477778912, 0.013269494287669659, 0.01184489019215107, 0.012883235700428486, 0.010098238475620747, 0.010542169213294983, 0.009084193035960197, 0.00843101553618908, 0.008754227310419083, 0.009874253533780575, 0.011845866218209267, 0.010601382702589035, 0.011143743991851807, 0.01215689443051815, 0.011449858546257019, 0.01183528732508421, 0.011533835902810097, 0.011950886808335781, 0.011928919702768326, 0.012161826714873314, 0.010432028211653233, 0.010715652257204056, 0.009661441668868065, 0.011591090820729733, 0.011462956666946411, 0.012568692676723003, 0.011437908746302128, 0.01224667951464653, 0.013810867443680763, 0.014400480315089226, 0.015350280329585075, 0.013586435467004776, 0.01415789220482111, 0.014234778471291065, 0.015892554074525833, 0.01600678451359272, 0.014401094987988472, 0.015055119059979916, 0.015124800615012646, 0.01448642835021019, 0.015526416711509228, 0.015104507096111774, 0.013550135307013988, 0.013929557986557484, 0.011801105923950672, 0.01243883091956377, 0.012698151171207428, 0.013224267400801182, 0.01435144618153572, 0.011939248070120811, 0.012995858676731586, 0.01393015868961811, 0.01247140858322382, 0.012802702374756336, 0.01395963504910469, 0.013729168102145195, 0.012888282537460327, 0.014944268390536308, 0.012755867093801498, 0.011982928961515427, 0.01209074817597866, 0.01166307833045721, 0.012474069371819496, 0.013813961297273636, 0.014034226536750793, 0.014747651293873787, 0.014577656053006649, 0.016438504680991173, 0.013960503973066807, 0.015485212206840515, 0.01344910729676485, 0.012058687396347523, 0.013324250467121601, 0.013182520866394043, 0.010989909991621971, 0.013202493079006672, 0.013394440524280071, 0.01483638770878315, 0.014883873052895069, 0.0134998494759202, 0.015016000717878342, 0.015132857486605644, 0.013395044952630997, 0.01138597633689642, 0.013021402060985565, 0.013394440524280071, 0.01259425189346075, 0.015647614374756813, 0.017937587574124336, 0.01670975610613823, 0.01821834407746792, 0.015320410951972008, 0.014852703548967838, 0.016626104712486267, 0.017799530178308487, 0.016295447945594788, 0.015903759747743607, 0.012373453006148338, 0.014390457421541214, 0.013109077699482441, 0.01401242520660162, 0.014777111820876598, 0.013484624214470387, 0.013608788140118122, 0.012110820971429348, 0.012918330729007721, 0.012093808501958847, 0.014223075471818447, 0.012546811252832413, 0.012840084731578827, 0.01390292588621378, 0.012931739911437035, 0.013865809887647629, 0.013239939697086811, 0.01139694731682539, 0.013094455935060978, 0.01431772205978632, 0.014074460603296757, 0.0116681307554245, 0.010768303647637367, 0.010570419020950794, 0.010853933170437813, 0.011841746978461742, 0.011254062876105309, 0.010696354322135448, 0.01304586697369814, 0.01043978612869978, 0.011358970776200294, 0.013065106235444546, 0.015230802819132805, 0.020100777968764305, 0.017785854637622833, 0.015176374465227127, 0.015273640863597393, 0.015375792048871517, 0.015890907496213913, 0.013490909710526466, 0.01236158236861229, 0.012887162156403065, 0.011924623511731625, 0.012160052545368671, 0.014170541428029537, 0.01394590176641941, 0.013513513840734959, 0.015025087632238865, 0.013473627157509327, 0.011465766467154026, 0.011254019103944302, 0.014580040238797665, 0.013951961882412434, 0.013152542524039745, 0.012715239077806473, 0.013281013816595078, 0.014117001555860043, 0.01354166679084301, 0.014688650146126747, 0.012741460464894772, 0.013897594064474106, 0.012371698394417763, 0.01286411751061678, 0.010792054235935211, 0.009368512779474258, 0.012055422179400921, 0.012083525769412518, 0.0127402413636446, 0.011855218559503555, 0.015038209967315197, 0.013329343870282173, 0.012798378244042397, 0.014288457110524178, 0.014539007097482681, 0.012752942740917206, 0.017122069373726845, 0.017158938571810722, 0.01751812919974327, 0.018892686814069748, 0.017957381904125214, 0.015854358673095703, 0.016748957335948944, 0.018930988386273384, 0.01858421601355076, 0.017318496480584145, 0.018967678770422935, 0.019714627414941788, 0.01782584935426712, 0.01632295362651348, 0.016906563192605972, 0.01761387102305889, 0.01756305806338787, 0.015413574874401093, 0.015847427770495415, 0.016385357826948166, 0.016770219430327415, 0.01616024039685726, 0.014719183556735516, 0.017901351675391197, 0.016293946653604507, 0.015686167404055595, 0.015684669837355614, 0.01519306655973196, 0.01531242299824953, 0.015194423496723175, 0.014545355923473835, 0.014714297838509083, 0.013379935175180435, 0.012768982909619808, 0.014628850854933262, 0.01366276666522026, 0.014965053647756577, 0.01578458584845066, 0.015129171311855316, 0.014268499799072742, 0.014519996009767056, 0.013921177014708519, 0.015413678251206875, 0.016831709071993828, 0.015266133472323418, 0.016086885705590248, 0.013112341053783894, 0.012117398902773857, 0.012447228655219078, 0.012162457220256329, 0.018040461465716362, 0.020504172891378403, 0.020666593685746193, 0.021979525685310364, 0.02252054773271084, 0.022516990080475807, 0.01804780215024948, 0.01941906474530697, 0.018335683271288872, 0.01867479830980301, 0.01797323115170002, 0.018450994044542313, 0.017265401780605316, 0.02173084206879139, 0.01939321495592594, 0.015908218920230865, 0.022315047681331635, 0.020937679335474968, 0.020013194531202316, 0.0210863146930933, 0.019904719665646553, 0.019933464005589485, 0.019788486883044243, 0.019084909930825233, 0.019495539367198944, 0.022850746288895607, 0.020152445882558823, 0.019300920888781548, 0.019699325785040855, 0.020151615142822266, 0.018603626638650894, 0.019390353932976723, 0.020147567614912987, 0.019672758877277374, 0.02096160687506199, 0.01827547512948513, 0.01477347407490015, 0.017864948138594627, 0.015228010714054108, 0.016229404136538506, 0.013819986023008823, 0.01584266684949398, 0.014783323742449284, 0.01407517772167921, 0.01250716857612133, 0.01230464968830347, 0.01398429088294506, 0.014721172861754894, 0.016615688800811768, 0.014799096621572971, 0.014801236800849438, 0.016270780935883522, 0.013723720796406269, 0.01563485711812973, 0.017569826915860176, 0.016356350854039192, 0.015622444450855255, 0.016612565144896507, 0.015876905992627144, 0.016839802265167236, 0.01665619947016239, 0.017742419615387917, 0.01754673197865486, 0.017240911722183228, 0.01909053698182106, 0.018226467072963715, 0.01888377033174038, 0.01667303405702114, 0.01472802460193634, 0.014416992664337158, 0.016555745154619217, 0.01751544326543808, 0.014596137218177319, 0.014457568526268005, 0.015263416804373264, 0.015840614214539528, 0.01370124239474535, 0.015193747356534004, 0.012967471964657307, 0.013405777513980865, 0.013109280727803707, 0.012731163762509823, 0.014345945790410042, 0.014748211950063705, 0.013471869751811028, 0.014532342553138733, 0.01399100199341774, 0.016117960214614868, 0.012225739657878876, 0.014714698307216167, 0.013999346643686295, 0.014716723933815956, 0.015161431394517422, 0.013936041854321957, 0.015306957997381687, 0.017231948673725128, 0.014159195125102997, 0.016497600823640823, 0.016906632110476494, 0.01678689941763878, 0.018336070701479912, 0.01882173866033554, 0.017856651917099953, 0.019501743838191032, 0.016688130795955658, 0.017564980313181877, 0.018985603004693985, 0.016930175945162773, 0.018899450078606606, 0.01751544326543808, 0.01782647706568241, 0.019550394266843796, 0.019960517063736916, 0.018179340288043022, 0.019585883244872093, 0.018169894814491272, 0.0173548124730587, 0.020700201392173767, 0.020589841529726982, 0.01950620673596859, 0.01950673945248127, 0.019597109407186508, 0.02002352476119995, 0.018972938880324364, 0.018821850419044495, 0.019000548869371414, 0.019769223406910896, 0.018082594498991966, 0.01747822016477585, 0.019068554043769836, 0.019087813794612885, 0.01883890852332115, 0.01778239756822586, 0.01602511666715145, 0.0182739719748497, 0.018340084701776505, 0.018261464312672615, 0.01562841609120369, 0.015774941071867943, 0.018047580495476723, 0.01815253682434559, 0.018139662221074104, 0.021104073151946068, 0.020888585597276688, 0.01840323396027088, 0.0197976715862751, 0.02011818066239357, 0.023167187348008156, 0.01984996162354946, 0.020734693855047226, 0.01959281973540783, 0.01904371567070484, 0.018430033698678017, 0.018898887559771538, 0.01801777258515358, 0.01798924431204796, 0.018449081107974052, 0.021545259281992912, 0.02115621045231819, 0.020338982343673706, 0.01834363117814064, 0.02047530934214592, 0.019526107236742973, 0.021006111055612564, 0.02031528390944004, 0.02047976478934288, 0.023290224373340607, 0.023357823491096497, 0.024261776357889175, 0.02366328425705433, 0.022463269531726837, 0.02402312308549881, 0.024081598967313766, 0.025821082293987274, 0.02723320573568344, 0.025877801701426506, 0.024687636643648148, 0.025254180654883385, 0.02424192614853382, 0.025716163218021393, 0.024037932977080345, 0.02642187848687172, 0.02375667914748192, 0.023825863376259804, 0.022914106026291847, 0.024166712537407875, 0.021742114797234535, 0.022648418322205544, 0.02347366325557232, 0.024024516344070435, 0.01966828480362892, 0.024158166721463203, 0.026061855256557465, 0.024297231808304787, 0.02291746437549591, 0.029081007465720177, 0.0220053568482399, 0.02552052028477192, 0.022352300584316254, 0.02253590151667595, 0.023978978395462036, 0.02347700111567974, 0.024210898205637932, 0.02140974998474121, 0.021277761086821556, 0.02224651537835598, 0.02359768934547901, 0.020955367013812065, 0.020285870879888535, 0.019939742982387543, 0.020205913111567497, 0.02019757404923439, 0.018666084855794907, 0.020375320687890053, 0.018295856192708015, 0.018876712769269943, 0.01773339882493019, 0.016181495040655136, 0.017518887296319008, 0.017712056636810303, 0.016980005428195, 0.01747323013842106, 0.015468238852918148, 0.017442019656300545]","[0.0, 0.001747647300362587, 0.0014033874031156301, 0.001480029197409749, 0.001441282220184803, 0.001076446962542832, 0.0013449381804093719, 0.0017498990055173635, 0.0019421583274379373, 0.001864094054326415, 0.0018075532279908657, 0.0019227070733904839, 0.0018637001048773527, 0.0019220049725845456, 0.0017689246451482177, 0.0019207128789275885, 0.001996966078877449, 0.000961501500569284, 0.002344620879739523, 0.0020006541162729263, 0.0011924452846869826, 0.0016738495323807001, 0.0019811883103102446, 0.0012306981952860951, 0.001979855354875326, 0.0020579297561198473, 0.0017694690031930804, 0.0017887024441733956, 0.0020556761883199215, 0.0019018346210941672, 0.001710518728941679, 0.001671726698987186, 0.0024818191304802895, 0.0018441678257659078, 0.002249048324301839, 0.0020536244846880436, 0.0024393522180616856, 0.0020951465703547, 0.002194206463173032, 0.001980731263756752, 0.0025185528211295605, 0.0035776798613369465, 0.0027317674830555916, 0.002692566718906164, 0.0020935367792844772, 0.002229440025985241, 0.0026518572121858597, 0.002271414967253804, 0.0018247824627906084, 0.002999307820573449, 0.003458877792581916, 0.002805049065500498, 0.0026161393616348505, 0.0029395942110568285, 0.0030753263272345066, 0.0032669061329215765, 0.003822806291282177, 0.002748308703303337, 0.0030715479515492916, 0.0030589275993406773, 0.0030195792205631733, 0.0030337939970195293, 0.003186119021847844, 0.003250500187277794, 0.0034396618138998747, 0.0032485006377100945, 0.0029598877299576998, 0.0032289063092321157, 0.0023846153635531664, 0.0037861315067857504, 0.0036929468624293804, 0.0030377604998648167, 0.003325068624690175, 0.0035760290920734406, 0.003399923210963607, 0.0031731990166008472, 0.003767202375456691, 0.0036116342525929213, 0.0031716739758849144, 0.003764380468055606, 0.0035332294646650553, 0.003847855608910322, 0.0035524319391697645, 0.003941170871257782, 0.003979927394539118, 0.003730769269168377, 0.003958037123084068, 0.002958238823339343, 0.002577071776613593, 0.002901892876252532, 0.003190099261701107, 0.0032091315370053053, 0.00347508885897696, 0.0035364211071282625, 0.002805049065500498, 0.0024802444968372583, 0.0030005192384123802, 0.0032677226699888706, 0.00407308479771018, 0.00338637363165617, 0.0035753415431827307, 0.003976563457399607, 0.0036881230771541595, 0.0038980739191174507, 0.0046113939024508, 0.004092218820005655, 0.00396024389192462, 0.004212753847241402, 0.004460937809199095, 0.005226347129791975, 0.004840847570449114, 0.004401306621730328, 0.004134217742830515, 0.0035350623074918985, 0.00407535582780838, 0.005634615197777748, 0.004264556337147951, 0.0050722407177090645, 0.0052670021541416645, 0.00496020307764411, 0.004788461606949568, 0.005001346580684185, 0.005094390362501144, 0.004889787174761295, 0.004191662650555372, 0.0051559279672801495, 0.005055067595094442, 0.005191209260374308, 0.0052278535440564156, 0.005494505632668734, 0.004688160493969917, 0.005650912411510944, 0.006054781377315521, 0.006206167861819267, 0.005764353089034557, 0.006823117379099131, 0.006365751847624779, 0.006177115719765425, 0.006729863118380308, 0.006476161070168018, 0.006358903832733631, 0.006425177678465843, 0.006069802679121494, 0.006501750089228153, 0.005728345364332199, 0.006613222416490316, 0.007150545716285706, 0.005052251275628805, 0.005613117478787899, 0.0057897972874343395, 0.005982494913041592, 0.004834439605474472, 0.005382234696298838, 0.005711867939680815, 0.0068269227631390095, 0.006746497470885515, 0.00584177253767848, 0.006786243058741093, 0.006888722535222769, 0.006649881601333618, 0.006787678226828575, 0.007150820456445217, 0.00647865142673254, 0.006842469796538353, 0.007072162814438343, 0.007250139955431223, 0.0061373296193778515, 0.007328895851969719, 0.006552903447300196, 0.005690228659659624, 0.007016532588750124, 0.006823642645031214, 0.007537011988461018, 0.007096153683960438, 0.007786814123392105, 0.007288882043212652, 0.008114604279398918, 0.007459816988557577, 0.0069428421556949615, 0.008460724726319313, 0.006417399737983942, 0.008378653787076473, 0.007295766845345497, 0.0072068264707922935, 0.0075027416460216045, 0.00751532893627882, 0.007372422143816948, 0.006225740537047386, 0.0067859822884202, 0.007911666296422482, 0.0068570771254599094, 0.007019230630248785, 0.008541254326701164, 0.007244844920933247, 0.007249303162097931, 0.006280610337853432, 0.006503001321107149, 0.007094789296388626, 0.007429163902997971, 0.008556540124118328, 0.007919269613921642, 0.00798510480672121, 0.008076301775872707, 0.007266854867339134, 0.007722749840468168, 0.007629040163010359, 0.007675438653677702, 0.007601416204124689, 0.0072866398841142654, 0.007884464226663113, 0.006867233198136091, 0.006057575810700655, 0.0066876779310405254, 0.006867497693747282, 0.008461213670670986, 0.006573130842298269, 0.007165911141782999, 0.0074365874752402306, 0.008379941806197166, 0.009516668505966663, 0.009231656789779663, 0.009014550596475601, 0.00852218084037304, 0.009598922915756702, 0.009230236522853374, 0.008418544195592403, 0.00839625671505928, 0.009226511232554913, 0.008176897652447224, 0.008711370639503002, 0.009863108396530151, 0.008842242881655693, 0.008766028098762035, 0.008778669871389866, 0.008936464786529541, 0.00834054034203291, 0.00875033624470234, 0.009296865202486515, 0.008684098720550537, 0.010096744634211063, 0.009056473150849342, 0.009514839388430119, 0.008574615232646465, 0.010241404175758362, 0.009557508863508701, 0.009663970209658146, 0.008828621357679367, 0.007865233346819878, 0.008493956178426743, 0.008330607786774635, 0.008786434307694435, 0.008508758619427681, 0.00881861336529255, 0.009052817709743977, 0.009420541115105152, 0.00931629166007042, 0.010172881186008453, 0.008197825402021408, 0.009476213715970516, 0.00830082781612873, 0.006904244422912598, 0.008511864580214024, 0.008016455918550491, 0.008055059239268303, 0.008594170212745667, 0.008552264422178268, 0.008575603365898132, 0.009473117999732494, 0.00817134790122509, 0.008745291270315647, 0.009754973463714123, 0.009525642730295658, 0.008309929631650448, 0.007585941813886166, 0.00926940981298685, 0.008549143560230732, 0.00968895386904478, 0.009917736984789371, 0.010074791498482227, 0.009662114083766937, 0.008417896926403046, 0.008830659091472626, 0.009283283725380898, 0.01017411146312952, 0.009306618012487888, 0.010050734505057335, 0.00865085143595934, 0.009591358713805676, 0.009491786360740662, 0.009085135534405708, 0.009051947854459286, 0.008072420954704285, 0.009721421636641026, 0.008845132775604725, 0.009404569864273071, 0.00949324481189251, 0.010558301582932472, 0.008339257910847664, 0.009161273017525673, 0.00922190211713314, 0.009689698927104473, 0.009806560352444649, 0.009993849322199821, 0.008681455627083778, 0.00911345612257719, 0.009566988795995712, 0.010745246894657612, 0.009875688701868057, 0.008834261447191238, 0.008285433985292912, 0.008806846104562283, 0.008474413305521011, 0.008340219035744667, 0.007361704017966986, 0.009086892940104008, 0.008302263915538788, 0.008801767602562904, 0.008864020928740501, 0.009933711029589176, 0.010986266657710075, 0.012067408300936222, 0.01004097145050764, 0.009630911983549595, 0.010725818574428558, 0.010466570034623146, 0.009765098802745342, 0.009312953799962997, 0.009914306923747063, 0.008927884511649609, 0.008629969321191311, 0.009826167486608028, 0.010247043333947659, 0.009483586065471172, 0.010194268077611923, 0.009109603241086006, 0.008374791592359543, 0.008649521507322788, 0.009592095389962196, 0.009466089308261871, 0.009973238222301006, 0.010055371560156345, 0.01067040953785181, 0.01146616879850626, 0.009769606404006481, 0.010567574761807919, 0.009460083208978176, 0.010145846754312515, 0.009090733714401722, 0.010090526193380356, 0.008573954924941063, 0.00840013101696968, 0.009593017399311066, 0.009711538441479206, 0.00949579942971468, 0.009202512912452221, 0.010676361620426178, 0.010054404847323895, 0.009351536631584167, 0.010647498071193695, 0.011302041821181774, 0.009924985468387604, 0.011209382675588131, 0.010758059099316597, 0.012446938082575798, 0.011996621266007423, 0.011940700002014637, 0.011359704658389091, 0.011234228499233723, 0.011757687665522099, 0.010427889414131641, 0.010756406001746655, 0.01159370131790638, 0.011763123795390129, 0.010424881242215633, 0.009887468069791794, 0.010974016040563583, 0.01097633596509695, 0.012268051505088806, 0.010164085775613785, 0.010994291864335537, 0.011859910562634468, 0.011534247547388077, 0.011594370007514954, 0.010886918753385544, 0.01203175075352192, 0.010476336814463139, 0.010175424627959728, 0.010022314265370369, 0.011531143449246883, 0.01069672778248787, 0.010967692360281944, 0.010816730558872223, 0.01174390222877264, 0.010519635863602161, 0.008835788816213608, 0.009869180619716644, 0.009714527055621147, 0.009673076681792736, 0.010771683417260647, 0.010040393099188805, 0.009921550750732422, 0.009691002778708935, 0.009596707299351692, 0.009952542372047901, 0.0110118193551898, 0.010760745964944363, 0.010933476500213146, 0.009517034515738487, 0.008839864283800125, 0.009900609031319618, 0.009344536811113358, 0.01187570858746767, 0.012291770428419113, 0.010850118473172188, 0.01131400279700756, 0.012479569762945175, 0.012389380484819412, 0.011437468230724335, 0.011844786815345287, 0.011782344430685043, 0.011126912198960781, 0.011341573670506477, 0.010773337446153164, 0.011455590836703777, 0.013193776831030846, 0.011234228499233723, 0.010221530683338642, 0.012667717412114143, 0.01151258870959282, 0.011865903623402119, 0.01152100320905447, 0.012426297180354595, 0.01172175258398056, 0.012336427345871925, 0.012496630661189556, 0.012448770925402641, 0.013613813556730747, 0.011561027728021145, 0.011667692102491856, 0.011544150300323963, 0.011870690621435642, 0.011897440068423748, 0.012494233436882496, 0.012220429256558418, 0.012110493145883083, 0.013308972120285034, 0.011221489869058132, 0.010170339606702328, 0.012009992264211178, 0.011138470843434334, 0.010366673581302166, 0.009408783167600632, 0.010297988541424274, 0.010977602563798428, 0.010024822317063808, 0.009197082370519638, 0.009623141959309578, 0.009646611288189888, 0.009004674851894379, 0.010713391937315464, 0.010145066305994987, 0.010657125152647495, 0.009913735091686249, 0.00974887516349554, 0.010001731105148792, 0.01076715998351574, 0.010471506044268608, 0.009518865495920181, 0.010550996288657188, 0.011780079454183578, 0.011254328303039074, 0.009706871584057808, 0.009784134104847908, 0.010492131114006042, 0.01028470415621996, 0.011417588219046593, 0.010691690258681774, 0.010589636862277985, 0.010097318328917027, 0.009998269379138947, 0.009757693856954575, 0.010982881300151348, 0.010919926688075066, 0.00927597377449274, 0.009911450557410717, 0.009873981587588787, 0.010361997410655022, 0.00943323690444231, 0.008997058495879173, 0.008175435476005077, 0.008573295548558235, 0.008290533907711506, 0.008863850496709347, 0.01063707284629345, 0.010436487384140491, 0.010720460675656796, 0.009590067900717258, 0.009276187978684902, 0.009613166563212872, 0.008451299741864204, 0.010793370194733143, 0.010447933338582516, 0.010489711537957191, 0.010453698225319386, 0.009672705084085464, 0.010548604652285576, 0.010954165831208229, 0.010207612998783588, 0.010548563674092293, 0.011014781892299652, 0.010727881453931332, 0.01243680715560913, 0.011265330947935581, 0.010384615510702133, 0.010773167945444584, 0.010312643833458424, 0.010135980322957039, 0.01134901586920023, 0.010757438838481903, 0.011170069687068462, 0.010710920207202435, 0.010567777790129185, 0.011700287461280823, 0.010954376310110092, 0.01075929868966341, 0.010682446882128716, 0.010366381146013737, 0.01034695003181696, 0.011223646812140942, 0.01071133278310299, 0.009817106649279594, 0.011391578242182732, 0.011401214636862278, 0.012027359567582607, 0.010121612809598446, 0.011121801100671291, 0.011323289014399052, 0.011537795886397362, 0.009844639338552952, 0.010969976894557476, 0.011252135969698429, 0.010996193625032902, 0.011644440703094006, 0.011070110835134983, 0.010072467848658562, 0.010683883912861347, 0.011167493648827076, 0.011783702298998833, 0.01067040953785181, 0.01073802262544632, 0.011201414279639721, 0.011716574430465698, 0.011372805573046207, 0.011016899719834328, 0.010876249521970749, 0.011190155521035194, 0.01178030576556921, 0.011109616607427597, 0.011427364312112331, 0.011296499520540237, 0.01219816692173481, 0.01210583932697773, 0.01158969011157751, 0.010863921605050564, 0.011907505802810192, 0.010147406719624996, 0.011227530427277088, 0.010326128453016281, 0.011822376400232315, 0.011813144199550152, 0.012216237373650074, 0.01214964035898447, 0.012525493279099464, 0.011966140940785408, 0.01280104648321867, 0.011260785162448883, 0.010908183641731739, 0.013306924141943455, 0.013310507871210575, 0.011928544379770756, 0.01255358848720789, 0.012819526717066765, 0.012344729155302048, 0.011610026471316814, 0.012335004284977913, 0.012762850150465965, 0.012528342194855213, 0.012468540109694004, 0.013410955667495728, 0.012434655800461769, 0.013341791927814484, 0.012893928214907646, 0.014220377430319786, 0.013309006579220295, 0.011387680657207966, 0.012414482422173023, 0.012313898652791977, 0.011922160163521767, 0.01289293635636568, 0.0119290417060256, 0.012237527407705784, 0.011328883469104767, 0.013366620987653732, 0.013393285684287548, 0.012712027877569199, 0.013406576588749886, 0.013546230271458626, 0.01381762232631445, 0.012877433560788631, 0.013437914662063122, 0.011999539099633694, 0.013052923604846, 0.012776176445186138, 0.013462129049003124, 0.012805476784706116, 0.0120308268815279, 0.012247408740222454, 0.013410955667495728, 0.012400984764099121, 0.012664562091231346, 0.012874050065875053, 0.012702012434601784, 0.013367184437811375, 0.011566245928406715, 0.012819773517549038, 0.0114951366558671, 0.011805876158177853, 0.012628787197172642, 0.011551249772310257, 0.011808827519416809, 0.012127851136028767, 0.012202632613480091, 0.011700737290084362, 0.01208615954965353, 0.012458663433790207]","[0.0, 0.0008606991614215076, 8.827683632262051e-05, 0.0, 4.4138418161310256e-05, 0.0, 4.4138418161310256e-05, 4.4138418161310256e-05, 0.00019862287444993854, 0.00013241525448393077, 0.00013241525448393077, 0.00037517654709517956, 0.00017655367264524102, 2.2069209080655128e-05, 2.2069209080655128e-05, 0.00011034604540327564, 0.00022069209080655128, 0.00022069209080655128, 0.00035310734529048204, 0.00026483050896786153, 8.827683632262051e-05, 0.00022069209080655128, 0.00011034604540327564, 8.827683632262051e-05, 0.00024276130716316402, 0.00033103814348578453, 0.00022069209080655128, 0.0005737994215451181, 0.00044138418161310256, 0.000617937883362174, 0.0005075918161310256, 0.00035310734529048204, 0.0006400070851668715, 0.0007062146905809641, 0.0007724222959950566, 0.0006620762869715691, 0.0009710452286526561, 0.001015183632262051, 0.0008386299596168101, 0.0007503530941903591, 0.0013682909775525331, 0.0023834744933992624, 0.0016772599192336202, 0.0015448445919901133, 0.0011917372466996312, 0.0011696680448949337, 0.0015007061883807182, 0.0013462217757478356, 0.0013020833721384406, 0.0017434675246477127, 0.002537959022447467, 0.0017876059282571077, 0.001964159542694688, 0.0015889829955995083, 0.0015669137937948108, 0.002096574753522873, 0.0024276128970086575, 0.001964159542694688, 0.0022731286007910967, 0.002626235829666257, 0.0023172670044004917, 0.002030367264524102, 0.0024276128970086575, 0.002449682215228677, 0.0024055438116192818, 0.0029352048877626657, 0.002493820618838072, 0.0028248587623238564, 0.002537959022447467, 0.003155896905809641, 0.003200035309419036, 0.002714512636885047, 0.0028689971659332514, 0.0027365819551050663, 0.0029572739731520414, 0.002560028340667486, 0.002515889937058091, 0.0023834744933992624, 0.0020745056681334972, 0.0029793432913720608, 0.0026041667442768812, 0.002582097426056862, 0.0027365819551050663, 0.0030896891839802265, 0.0032221046276390553, 0.0028689971659332514, 0.0035752118565142155, 0.0027365819551050663, 0.001986228860914707, 0.0024055438116192818, 0.003288312116637826, 0.0029572739731520414, 0.0033986582420766354, 0.0034427966456860304, 0.0036634886637330055, 0.003155896905809641, 0.003332450520247221, 0.0042372881434857845, 0.004789018537849188, 0.0036193502601236105, 0.0035531427711248398, 0.003597281174734235, 0.0038841809146106243, 0.0042372881434857845, 0.004789018537849188, 0.00390625, 0.004215219058096409, 0.004744879901409149, 0.004987641237676144, 0.005142125766724348, 0.004965572152286768, 0.004303495865315199, 0.004325564950704575, 0.004060734529048204, 0.004126942250877619, 0.005495232995599508, 0.004126942250877619, 0.005053848959505558, 0.0057600634172558784, 0.004700741730630398, 0.0048110876232385635, 0.005164194852113724, 0.005097987130284309, 0.005340748466551304, 0.005075918044894934, 0.005715925246477127, 0.005627648439258337, 0.005980755668133497, 0.006245586089789867, 0.005914547946304083, 0.004899364430457354, 0.005715925246477127, 0.0057821329683065414, 0.005583509802818298, 0.005451094824820757, 0.006598693318665028, 0.006289724726229906, 0.006046963389962912, 0.006267655175179243, 0.006731108762323856, 0.006378001533448696, 0.006576624233275652, 0.0057600634172558784, 0.006731108762323856, 0.006400070618838072, 0.0063338628970086575, 0.006929731462150812, 0.005406956188380718, 0.005583509802818298, 0.0059366170316934586, 0.005914547946304083, 0.005561440717428923, 0.0059586865827441216, 0.006355931982398033, 0.006069032475352287, 0.0064442092552781105, 0.005671786610037088, 0.006267655175179243, 0.0065104165114462376, 0.0058704097755253315, 0.0058704097755253315, 0.006841454654932022, 0.006069032475352287, 0.0063338628970086575, 0.006069032475352287, 0.006929731462150812, 0.004899364430457354, 0.006576624233275652, 0.005671786610037088, 0.0052083334885537624, 0.006311793811619282, 0.0058704097755253315, 0.0063338628970086575, 0.006378001533448696, 0.007437323685735464, 0.007349046412855387, 0.007415254134684801, 0.006885593291372061, 0.007172492798417807, 0.0075697386637330055, 0.006664901040494442, 0.008938029408454895, 0.007216631434857845, 0.006488347426056862, 0.007437323685735464, 0.007062146905809641, 0.007702154107391834, 0.006885593291372061, 0.007525600492954254, 0.0075697386637330055, 0.006576624233275652, 0.00719456234946847, 0.007768361829221249, 0.007216631434857845, 0.007326977327466011, 0.006775247398763895, 0.0065104165114462376, 0.006929731462150812, 0.006863524205982685, 0.008805613964796066, 0.008275953121483326, 0.007900777272880077, 0.008452506735920906, 0.007878707721829414, 0.007415254134684801, 0.007238700520247221, 0.007326977327466011, 0.006973870098590851, 0.007216631434857845, 0.0078125, 0.008011123165488243, 0.00763594638556242, 0.007018008269369602, 0.006797316484153271, 0.0078125, 0.006973870098590851, 0.007680084556341171, 0.00798905361443758, 0.008584922179579735, 0.008982168510556221, 0.00882768351584673, 0.008408368565142155, 0.008761475794017315, 0.009379413910210133, 0.008496645838022232, 0.007658015470951796, 0.00834216084331274, 0.009224929846823215, 0.008320092223584652, 0.008673199452459812, 0.009291136637330055, 0.008055261336266994, 0.008209745399653912, 0.008474576286971569, 0.00900423713028431, 0.008938029408454895, 0.00904837530106306, 0.009269068017601967, 0.007944915443658829, 0.009136652573943138, 0.009335275739431381, 0.008629060350358486, 0.008055261336266994, 0.009600105695426464, 0.009070444852113724, 0.009931144304573536, 0.009511829353868961, 0.009224929846823215, 0.00887182168662548, 0.008960098959505558, 0.009026306681334972, 0.009092514403164387, 0.008982168510556221, 0.009114583022892475, 0.010129766538739204, 0.009666313417255878, 0.01035045925527811, 0.008386299014091492, 0.010791842825710773, 0.009026306681334972, 0.008474576286971569, 0.009754590690135956, 0.009224929846823215, 0.008739407174289227, 0.009732521139085293, 0.009224929846823215, 0.009445621632039547, 0.00982079841196537, 0.008849753066897392, 0.009754590690135956, 0.009666313417255878, 0.010019420646131039, 0.00887182168662548, 0.009666313417255878, 0.009842867031693459, 0.009401483461260796, 0.010549081489443779, 0.009732521139085293, 0.010151836089789867, 0.009909074753522873, 0.009202860295772552, 0.010262181982398033, 0.010262181982398033, 0.01070356648415327, 0.009622175246477127, 0.01017390564084053, 0.008629060350358486, 0.009246998466551304, 0.00904837530106306, 0.00865112990140915, 0.00964424479752779, 0.008739407174289227, 0.009975282475352287, 0.009136652573943138, 0.008849753066897392, 0.00882768351584673, 0.00982079841196537, 0.008143538609147072, 0.00882768351584673, 0.008364230394363403, 0.009555967524647713, 0.009445621632039547, 0.010151836089789867, 0.008452506735920906, 0.00918079074472189, 0.00953389797359705, 0.01088012009859085, 0.00964424479752779, 0.008982168510556221, 0.00851871445775032, 0.009224929846823215, 0.009335275739431381, 0.009489759802818298, 0.008474576286971569, 0.009489759802818298, 0.008187676779925823, 0.008893891237676144, 0.009445621632039547, 0.008187676779925823, 0.009975282475352287, 0.010394597426056862, 0.009555967524647713, 0.009776659309864044, 0.01017390564084053, 0.009754590690135956, 0.009887006133794785, 0.009224929846823215, 0.009379413910210133, 0.00982079841196537, 0.009070444852113724, 0.009511829353868961, 0.010460805147886276, 0.009555967524647713, 0.010019420646131039, 0.009887006133794785, 0.008849753066897392, 0.009313206188380718, 0.009975282475352287, 0.009379413910210133, 0.009842867031693459, 0.00971045158803463, 0.010262181982398033, 0.011961511336266994, 0.009887006133794785, 0.009842867031693459, 0.008982168510556221, 0.009975282475352287, 0.009202860295772552, 0.00904837530106306, 0.008452506735920906, 0.008143538609147072, 0.008673199452459812, 0.009092514403164387, 0.008320092223584652, 0.00882768351584673, 0.009335275739431381, 0.009092514403164387, 0.00935734435915947, 0.009578037075698376, 0.010460805147886276, 0.008187676779925823, 0.009291136637330055, 0.009202860295772552, 0.01052701286971569, 0.009379413910210133, 0.01052701286971569, 0.010195974260568619, 0.00982079841196537, 0.010394597426056862, 0.009489759802818298, 0.010460805147886276, 0.010549081489443779, 0.010637358762323856, 0.009622175246477127, 0.00918079074472189, 0.010262181982398033, 0.010747704654932022, 0.010394597426056862, 0.00935734435915947, 0.00971045158803463, 0.010262181982398033, 0.010218043811619282, 0.010504943318665028, 0.009401483461260796, 0.010504943318665028, 0.010372527875006199, 0.008982168510556221, 0.008960098959505558, 0.009864936582744122, 0.010151836089789867, 0.010593220591545105, 0.00982079841196537, 0.010858050547540188, 0.009600105695426464, 0.008562853559851646, 0.009754590690135956, 0.009291136637330055, 0.008938029408454895, 0.00953389797359705, 0.009423552080988884, 0.008474576286971569, 0.009489759802818298, 0.008960098959505558, 0.009423552080988884, 0.011387712322175503, 0.009887006133794785, 0.010504943318665028, 0.009291136637330055, 0.00904837530106306, 0.0086952680721879, 0.008430438116192818, 0.011498058214783669, 0.011939441785216331, 0.01017390564084053, 0.010063559748232365, 0.012336688116192818, 0.011696680448949337, 0.010019420646131039, 0.011277365498244762, 0.011144950985908508, 0.009887006133794785, 0.009776659309864044, 0.009754590690135956, 0.01017390564084053, 0.013064972124993801, 0.011078743264079094, 0.009578037075698376, 0.012358756735920906, 0.012049788609147072, 0.010549081489443779, 0.011299435049295425, 0.01154219638556242, 0.011144950985908508, 0.011586334556341171, 0.01070356648415327, 0.011100811883807182, 0.012160134501755238, 0.010019420646131039, 0.010372527875006199, 0.010858050547540188, 0.010902189649641514, 0.009887006133794785, 0.011167019605636597, 0.011630472727119923, 0.01189530361443758, 0.011299435049295425, 0.010637358762323856, 0.009136652573943138, 0.010946327820420265, 0.010813912376761436, 0.010725636035203934, 0.009688382968306541, 0.010195974260568619, 0.010240113362669945, 0.010504943318665028, 0.00982079841196537, 0.010769774205982685, 0.010085628367960453, 0.009953212924301624, 0.011321504600346088, 0.010218043811619282, 0.010946327820420265, 0.010924258269369602, 0.010504943318665028, 0.009953212924301624, 0.010637358762323856, 0.010195974260568619, 0.010151836089789867, 0.010306321084499359, 0.011100811883807182, 0.010813912376761436, 0.010284251533448696, 0.010394597426056862, 0.010549081489443779, 0.010085628367960453, 0.01052701286971569, 0.009975282475352287, 0.010063559748232365, 0.009909074753522873, 0.009842867031693459, 0.009269068017601967, 0.010924258269369602, 0.011233227327466011, 0.009688382968306541, 0.010394597426056862, 0.01035045925527811, 0.0108359819278121, 0.009909074753522873, 0.009754590690135956, 0.00935734435915947, 0.008915960788726807, 0.009688382968306541, 0.010085628367960453, 0.011211157776415348, 0.011277365498244762, 0.010637358762323856, 0.010460805147886276, 0.009622175246477127, 0.01136564277112484, 0.009136652573943138, 0.011255296878516674, 0.01035045925527811, 0.01048287469893694, 0.009953212924301624, 0.009423552080988884, 0.010195974260568619, 0.010902189649641514, 0.01065942831337452, 0.01171875, 0.012447034008800983, 0.011453919112682343, 0.012402895838022232, 0.01171875, 0.011211157776415348, 0.01154219638556242, 0.011233227327466011, 0.010195974260568619, 0.011740819551050663, 0.01136564277112484, 0.012336688116192818, 0.011431850492954254, 0.010747704654932022, 0.011321504600346088, 0.010946327820420265, 0.011277365498244762, 0.01136564277112484, 0.010968397371470928, 0.011387712322175503, 0.011873234063386917, 0.011233227327466011, 0.010946327820420265, 0.012005649507045746, 0.012115995399653912, 0.011608404107391834, 0.010813912376761436, 0.011983580887317657, 0.012138064950704575, 0.01242496445775032, 0.010460805147886276, 0.010085628367960453, 0.011233227327466011, 0.009754590690135956, 0.010769774205982685, 0.01088012009859085, 0.009975282475352287, 0.011961511336266994, 0.011498058214783669, 0.011784957721829414, 0.011321504600346088, 0.0108359819278121, 0.011586334556341171, 0.01154219638556242, 0.011233227327466011, 0.01154219638556242, 0.011299435049295425, 0.010460805147886276, 0.010968397371470928, 0.010394597426056862, 0.01088012009859085, 0.009622175246477127, 0.011122881434857845, 0.0108359819278121, 0.011167019605636597, 0.011387712322175503, 0.011299435049295425, 0.010041490197181702, 0.010328389704227448, 0.011277365498244762, 0.01154219638556242, 0.012358756735920906, 0.011608404107391834, 0.011498058214783669, 0.011762888170778751, 0.011630472727119923, 0.01242496445775032, 0.01065942831337452, 0.01189530361443758, 0.01308704074472189, 0.0126015180721879, 0.011740819551050663, 0.011520126834511757, 0.012888418510556221, 0.011851165443658829, 0.011321504600346088, 0.011630472727119923, 0.011674611829221249, 0.012888418510556221, 0.011851165443658829, 0.01189530361443758, 0.012226342223584652, 0.012932556681334972, 0.013109110295772552, 0.012800141237676144, 0.011696680448949337, 0.011564265936613083, 0.011498058214783669, 0.011144950985908508, 0.01171875, 0.012182203121483326, 0.010549081489443779, 0.011740819551050663, 0.0108359819278121, 0.011784957721829414, 0.012358756735920906, 0.01154219638556242, 0.012579449452459812, 0.01171875, 0.0126015180721879, 0.012976694852113724, 0.012204272672533989, 0.010924258269369602, 0.01189530361443758, 0.012513241730630398, 0.012822210788726807, 0.012027719058096409, 0.01154219638556242, 0.012138064950704575, 0.012402895838022232, 0.011917373165488243, 0.012270480394363403, 0.01189530361443758, 0.012049788609147072, 0.01295462530106306, 0.01118908915668726, 0.012336688116192818, 0.01189530361443758, 0.011961511336266994, 0.011983580887317657, 0.011299435049295425, 0.012513241730630398, 0.012005649507045746, 0.011784957721829414, 0.01101253554224968, 0.011299435049295425, 0.012270480394363403]","[0.0, 0.023480083793401718, 0.02409285120666027, 0.021945683285593987, 0.026442106813192368, 0.02378743141889572, 0.024928050115704536, 0.02695327252149582, 0.028283758088946342, 0.029655344784259796, 0.024858281016349792, 0.024663394317030907, 0.022896921262145042, 0.02920868620276451, 0.023549271747469902, 0.01846998743712902, 0.014330402947962284, 0.004916172940284014, 0.020772382616996765, 0.028523419052362442, 0.01174804288893938, 0.02220633439719677, 0.014830418862402439, 0.021149445325136185, 0.01852162927389145, 0.016664572060108185, 0.01384901162236929, 0.016025373712182045, 0.02188776805996895, 0.012230755761265755, 0.009614168666303158, 0.014357895590364933, 0.02456732839345932, 0.023974336683750153, 0.019253961741924286, 0.014374318532645702, 0.016635624691843987, 0.012766317464411259, 0.01285720244050026, 0.0029674831312149763, 0.004014217294752598, 0.005416299216449261, 0.007970801554620266, 0.005242355167865753, 0.0011360767530277371, 0.0012967998627573252, 0.002685464918613434, 0.0013650464825332165, 0.0018027839250862598, 0.006830771919339895, 0.005797344725579023, 0.00295047415420413, 0.0025052193086594343, 0.004362232983112335, 0.0028069880791008472, 0.009407141245901585, 0.007695559877902269, 0.0056286766193807125, 0.003140966407954693, 0.0021415974479168653, 0.001341100549325347, 0.00092413678066805, 0.0018867133185267448, 0.0030365651473402977, 0.004667199216783047, 0.0024640827905386686, 0.0024213073775172234, 0.0006768762250430882, 0.00033502239966765046, 0.0054168920032680035, 0.011101298965513706, 0.0015486355405300856, 0.0037690019235014915, 0.013171182945370674, 0.014445421285927296, 0.019801149144768715, 0.027344075962901115, 0.022470025345683098, 0.020501617342233658, 0.016124946996569633, 0.015290392562747002, 0.010461745783686638, 0.00856854859739542, 0.012994089163839817, 0.010514896363019943, 0.0064027453772723675, 0.0023753957357257605, 0.0007962784729897976, 0.00042039770050905645, 0.0005023652920499444, 0.00037612838787026703, 0.0007992932805791497, 0.0005839415825903416, 0.0010489217238500714, 0.00046350917546078563, 0.0002954209630843252, 0.002612065989524126, 0.0014238451840355992, 0.0007196071674115956, 0.0015396138187497854, 0.0016378297004848719, 0.003573380410671234, 0.0019710632041096687, 0.0020238645374774933, 0.0046139005571603775, 0.0022399730514734983, 0.0013837638543918729, 0.001048745703883469, 0.0010937696788460016, 0.003162155393511057, 0.0027478246483951807, 0.004343688953667879, 0.0012619888875633478, 0.0008006742573343217, 0.0007093974272720516, 0.0010117617202922702, 0.0015818175161257386, 0.001255913288332522, 0.0015908235218375921, 0.003143336158245802, 0.003209866350516677, 0.00262934691272676, 0.0033359741792082787, 0.0008413613541051745, 0.0009279959485866129, 0.001387429074384272, 0.0016438355669379234, 0.0017159120179712772, 0.0014938999665901065, 0.0027154614217579365, 0.0032516259234398603, 0.003666055854409933, 0.008937938138842583, 0.01154201291501522, 0.013389121741056442, 0.012925771065056324, 0.013462976552546024, 0.010323869995772839, 0.007189680356532335, 0.004872516728937626, 0.006748594343662262, 0.0038555024657398462, 0.0023207729682326317, 0.002765440382063389, 0.003093645442277193, 0.00644783116877079, 0.009113539941608906, 0.0005881611723452806, 0.0009616188472136855, 0.0017179970163851976, 0.0016761650331318378, 0.0016038493486121297, 0.0014121361309662461, 0.0012678020866587758, 0.0013355035334825516, 0.0018207223620265722, 0.001973794773221016, 0.0012117666192352772, 0.0012170044938102365, 0.001644459436647594, 0.0016733601223677397, 0.002389536239206791, 0.0018030105857178569, 0.002592189935967326, 0.0015965716447681189, 0.001416666666045785, 0.0019320425344631076, 0.0021069487556815147, 0.0011773115256801248, 0.0018896447727456689, 0.0010434926953166723, 0.0014267130754888058, 0.001636592554859817, 0.0020540766417980194, 0.0019260561093688011, 0.0017551924102008343, 0.0028018231969326735, 0.002790736500173807, 0.0014232492540031672, 0.002375095384195447, 0.002138364827260375, 0.0026183451991528273, 0.001969081349670887, 0.002132463501766324, 0.001851150649599731, 0.0012159838806837797, 0.0017255166312679648, 0.0011637089774012566, 0.0012988646049052477, 0.0013864380307495594, 0.0010475153103470802, 0.0018311206949874759, 0.0014392143348231912, 0.0015850504860281944, 0.0011298962635919452, 0.001466337125748396, 0.0016492578433826566, 0.0014316994929686189, 0.0010945064714178443, 0.0015396138187497854, 0.002099340781569481, 0.0017095443326979876, 0.0011799907078966498, 0.00209126272238791, 0.004084898624569178, 0.002224273979663849, 0.00256669195368886, 0.002421712037175894, 0.0016145725967362523, 0.0014707118971273303, 0.00121674919500947, 0.0010983441025018692, 0.001701597822830081, 0.000970914785284549, 0.0019443739438429475, 0.0012660365318879485, 0.0013050982961431146, 0.0012540232855826616, 0.0013853905256837606, 0.0019008194794878364, 0.002049437491223216, 0.0042932904325425625, 0.004519535228610039, 0.003604660741984844, 0.0033097323030233383, 0.001757984166033566, 0.0023382045328617096, 0.002156066009774804, 0.003324775956571102, 0.0030047574546188116, 0.0028303482104092836, 0.0026376384776085615, 0.002513088984414935, 0.0018414665246382356, 0.002684901701286435, 0.0018368539167568088, 0.0028221220709383488, 0.0023427042178809643, 0.004216534085571766, 0.005440283101052046, 0.004592760931700468, 0.002532500308007002, 0.0019827040378004313, 0.002116445917636156, 0.002961959922686219, 0.0016866250662133098, 0.0021593787241727114, 0.0013065284583717585, 0.0012571237748488784, 0.0019905976951122284, 0.0017285719513893127, 0.0021446594037115574, 0.0028675044886767864, 0.0022344014141708612, 0.002605041954666376, 0.0027407656889408827, 0.003041439689695835, 0.0020871597807854414, 0.0022208255250006914, 0.0015894260723143816, 0.0014781029894948006, 0.0013914656592532992, 0.0019109091954305768, 0.0010949212592095137, 0.0014266532380133867, 0.0014731258852407336, 0.0020400516223162413, 0.0020225855987519026, 0.0015531209064647555, 0.001718717161566019, 0.0017593096708878875, 0.0018154183635488153, 0.0016812373651191592, 0.0012613520957529545, 0.0015152152627706528, 0.0014698471641167998, 0.0019750387873500586, 0.0018495942931622267, 0.001943306066095829, 0.0019103784579783678, 0.0017087605083361268, 0.001844322308897972, 0.0016773598035797477, 0.0023487962316721678, 0.002312868135049939, 0.0016836433205753565, 0.001710685552097857, 0.002053302014246583, 0.0013317241100594401, 0.0014658457366749644, 0.0014242030447348952, 0.0014625992625951767, 0.001469230162911117, 0.0011405880795791745, 0.0016589938895776868, 0.004092309158295393, 0.0025913233403116465, 0.0018881382420659065, 0.0017274796264246106, 0.0025204787962138653, 0.005176331847906113, 0.004808706231415272, 0.004372995812445879, 0.003136106999590993, 0.0030110403895378113, 0.0028969687409698963, 0.0030041306745260954, 0.0031677226070314646, 0.0017976588569581509, 0.000962383346632123, 0.001867334358394146, 0.0016830767272040248, 0.0013021379709243774, 0.001304274657741189, 0.0012080313172191381, 0.0013377367286011577, 0.0014237259747460485, 0.0016785564366728067, 0.0028206403367221355, 0.001966527197510004, 0.0019091097638010979, 0.0018871088977903128, 0.0015115253627300262, 0.0019327731570228934, 0.0015389093896374106, 0.0014615609543398023, 0.0014206919586285949, 0.0011731188278645277, 0.0010061627253890038, 0.001547922845929861, 0.0018693142337724566, 0.0020312301348894835, 0.00155553687363863, 0.001179245300590992, 0.0011751868296414614, 0.0010549413273110986, 0.0012227001134306192, 0.0012646488612517715, 0.0015505824703723192, 0.001954037696123123, 0.0017497813096269965, 0.0021273933816701174, 0.002291094046086073, 0.0015457888366654515, 0.0025715611409395933, 0.0014307355741038918, 0.001686411676928401, 0.002386834705248475, 0.0016278487164527178, 0.0013017005985602736, 0.0017644093604758382, 0.005431121680885553, 0.0025435583665966988, 0.003166962182149291, 0.004059936385601759, 0.008453902788460255, 0.00401606410741806, 0.004639110527932644, 0.002964138053357601, 0.0026098669040948153, 0.006639492232352495, 0.00272479560226202, 0.004912457428872585, 0.012077806517481804, 0.016777819022536278, 0.019141580909490585, 0.004909159615635872, 0.0025255712680518627, 0.002550700446590781, 0.005174154881387949, 0.0046315789222717285, 0.003920411691069603, 0.0033344589173793793, 0.0033478406257927418, 0.0025938167236745358, 0.0019745409954339266, 0.00390349212102592, 0.003939317539334297, 0.00277777761220932, 0.0029390770941972733, 0.004598662257194519, 0.003327510319650173, 0.0021078370045870543, 0.003008398460224271, 0.002958704950287938, 0.0017618928104639053, 0.002595554105937481, 0.0018100689630955458, 0.0024215097073465586, 0.0015849843621253967, 0.0015195002779364586, 0.0019771161023527384, 0.0018973731203004718, 0.002227452350780368, 0.0015518182190135121, 0.0017818505875766277, 0.0014317597961053252, 0.0012536040740087628, 0.0023531389888375998, 0.0016387932701036334, 0.0017571750795468688, 0.0008435971103608608, 0.001425397233106196, 0.0016324822790920734, 0.0019361083395779133, 0.0014706499641761184, 0.0010135991033166647, 0.0012219272321090102, 0.0012994089629501104, 0.0011391924927011132, 0.0014688600786030293, 0.0034328296314924955, 0.003256777999922633, 0.005139561835676432, 0.0031823129393160343, 0.003010536776855588, 0.006855364423245192, 0.002679254859685898, 0.00345248612575233, 0.0030151179526001215, 0.0022802127059549093, 0.002394354436546564, 0.002339083468541503, 0.0025198436342179775, 0.002152443630620837, 0.002457731170579791, 0.002092575654387474, 0.002413850510492921, 0.002261401154100895, 0.0023710483219474554, 0.0022639611270278692, 0.0019253307254984975, 0.002695417730137706, 0.0031186784617602825, 0.003180581610649824, 0.0024066390469670296, 0.0034472611732780933, 0.0028399599250406027, 0.00257579586468637, 0.002061855513602495, 0.00210579507984221, 0.0033639271277934313, 0.00405806815251708, 0.004137290176004171, 0.0023881345987319946, 0.0032254010438919067, 0.002842928282916546, 0.0018018773989751935, 0.002226142445579171, 0.0021873554214835167, 0.0044696941040456295, 0.004003371112048626, 0.004368646536022425, 0.00233761896379292, 0.0016954760067164898, 0.0012186410604044795, 0.0017911443719640374, 0.0013821989996358752, 0.0016338499262928963, 0.0015336787328124046, 0.0013526651309803128, 0.0016341923037543893, 0.0016481427010148764, 0.0012585476506501436, 0.001210401183925569, 0.002465215278789401, 0.0017275523860007524, 0.001516555668786168, 0.0027360355015844107, 0.0019412559922784567, 0.003482127794995904, 0.0020174002274870872, 0.0019717246759682894, 0.0019351310329511762, 0.0027202789206057787, 0.002436872571706772, 0.0027349996380507946, 0.0028077939059585333, 0.0021876313257962465, 0.001883869874291122, 0.0018695471808314323, 0.0023696681018918753, 0.0030428078025579453, 0.0017940588295459747, 0.0023151070345193148, 0.002263391623273492, 0.0015205913223326206, 0.002868714276701212, 0.001637142151594162, 0.0010895528830587864, 0.0014291719999164343, 0.0013820831663906574, 0.0021276597399264574, 0.002134784357622266, 0.002339474391192198, 0.0018528656801208854, 0.001974126324057579, 0.001335336361080408, 0.0016252031782642007, 0.0018509171204641461, 0.0021924276370555162, 0.002320675179362297, 0.004959858953952789, 0.002990229055285454, 0.001590490574017167, 0.0018934613326564431, 0.0023054995108395815, 0.0020560589618980885, 0.0018952155951410532, 0.0023163745645433664, 0.002754705958068371, 0.004272072575986385, 0.002114164875820279, 0.0025341699365526438, 0.0034570370335131884, 0.0036366675049066544, 0.0031844463665038347, 0.0030391342006623745, 0.00260558957234025, 0.0020496088545769453, 0.002334208693355322, 0.002781406743451953, 0.002594684949144721, 0.002505847020074725, 0.00202309712767601, 0.0026881720405071974, 0.004030734300613403, 0.004769813735038042, 0.005126481410115957, 0.0046646492555737495, 0.003998148255050182, 0.004082147963345051, 0.0051088775508105755, 0.007167106959968805, 0.0036336297634989023, 0.002419792115688324, 0.004417402669787407, 0.003229323774576187, 0.0036463856231421232, 0.0038657085970044136, 0.0022896630689501762, 0.002490397309884429, 0.003416382009163499, 0.0018857645336538553, 0.0019759521819651127, 0.002299715531989932, 0.002344665816053748, 0.0022184085100889206, 0.002141417469829321, 0.002684676321223378, 0.002851631259545684, 0.002438819268718362, 0.0023152045905590057, 0.0031528500840067863, 0.0023908393923193216, 0.00277404161170125, 0.0027068178169429302, 0.003495484823361039, 0.004260296002030373, 0.0023020259104669094, 0.002704301616176963, 0.0017593834782019258, 0.0020994290243834257, 0.002606027526780963, 0.0018865552265197039, 0.0016013485146686435, 0.001639826688915491, 0.0020328648388385773, 0.0017684955382719636, 0.0022239938843995333, 0.0020720234606415033, 0.001985384151339531, 0.002791878068819642, 0.0017952572088688612, 0.002398989861831069, 0.0014619271969422698, 0.0022834911942481995, 0.0025919731706380844, 0.002297410275787115, 0.002271388890221715, 0.0022133132442831993, 0.002374900970607996, 0.002737649017944932, 0.00282117142342031, 0.0025191032327711582, 0.002642285078763962, 0.002699852455407381, 0.0023829431738704443, 0.0029377201572060585, 0.0025513404980301857, 0.003179650055244565, 0.0029667390044778585, 0.0031218361109495163, 0.0023828435223549604, 0.002543256152421236, 0.0027309777215123177, 0.0021470068022608757, 0.0017508025048300624, 0.0021416873205453157, 0.003137156367301941, 0.0025136154145002365, 0.002062463201582432, 0.002672456903383136, 0.0019133980385959148, 0.002067161723971367, 0.0020964359864592552, 0.003250179346650839, 0.0024754551704972982, 0.0018893274245783687, 0.002279827604070306, 0.0019393734401091933, 0.0027214870788156986, 0.0023922440595924854, 0.0020255728159099817, 0.0022931955754756927, 0.0020084523130208254, 0.002644170308485627, 0.0029304642230272293, 0.0024113415274769068, 0.0024130470119416714, 0.0022170166485011578, 0.0020340390037745237, 0.0024922117590904236, 0.00248191156424582, 0.0021470068022608757, 0.0020916126668453217, 0.002090650610625744, 0.0033667199313640594, 0.0025596912018954754, 0.002679618075489998, 0.0022560872603207827, 0.0034733987413346767, 0.0031795171089470387, 0.0033280709758400917, 0.0025528352707624435]","[0.0, 0.020608674734830856, 0.01774020679295063, 0.019547080621123314, 0.026972191408276558, 0.020016679540276527, 0.023300275206565857, 0.02615000680088997, 0.02341892570257187, 0.02756563201546669, 0.02781740389764309, 0.025576969608664513, 0.022822320461273193, 0.030523428693413734, 0.027120256796479225, 0.028256705030798912, 0.028787333518266678, 0.02163061499595642, 0.029467906802892685, 0.025732241570949554, 0.023391118273139, 0.024289099499583244, 0.028717217966914177, 0.02377273328602314, 0.026692088693380356, 0.0296841599047184, 0.028493409976363182, 0.027068739756941795, 0.02761506289243698, 0.024877406656742096, 0.03100775182247162, 0.02854072116315365, 0.03093150071799755, 0.025598086416721344, 0.02573266625404358, 0.028509562835097313, 0.03256314992904663, 0.029436299577355385, 0.02694716863334179, 0.025074273347854614, 0.02844560705125332, 0.031683873385190964, 0.025370480492711067, 0.02909393236041069, 0.019518621265888214, 0.021705426275730133, 0.032350484281778336, 0.023151429370045662, 0.023698383942246437, 0.028438840061426163, 0.028772683814167976, 0.018405640497803688, 0.02229865826666355, 0.03393881395459175, 0.02515198476612568, 0.02876238152384758, 0.02918660268187523, 0.024332061409950256, 0.02474474534392357, 0.020149340853095055, 0.02825932204723358, 0.02651151642203331, 0.022850269451737404, 0.02670940011739731, 0.02865329571068287, 0.022283127531409264, 0.023131035268306732, 0.017171476036310196, 0.012832699343562126, 0.023377861827611923, 0.027655785903334618, 0.02129938267171383, 0.018242517486214638, 0.025348089635372162, 0.02477261796593666, 0.023996198549866676, 0.02730090729892254, 0.027146615087985992, 0.02621231973171234, 0.023116540163755417, 0.028300754725933075, 0.02760990709066391, 0.02626214176416397, 0.029758362099528313, 0.031171921640634537, 0.0270912554115057, 0.02150537632405758, 0.018784398213028908, 0.01900463178753853, 0.015749910846352577, 0.012649164535105228, 0.016951175406575203, 0.015364302322268486, 0.01252086739987135, 0.003944065887480974, 0.004759071860462427, 0.019940653815865517, 0.018946615979075432, 0.013505438342690468, 0.020964112132787704, 0.021208148449659348, 0.02643224596977234, 0.0256072748452425, 0.02314426191151142, 0.03524071350693703, 0.03311020880937576, 0.020835813134908676, 0.018384533002972603, 0.023784039542078972, 0.03141423687338829, 0.023447781801223755, 0.02647269144654274, 0.02651290036737919, 0.016495339572429657, 0.017270129173994064, 0.01972433365881443, 0.022371096536517143, 0.024020075798034668, 0.022754348814487457, 0.026898356154561043, 0.018298478797078133, 0.02230130508542061, 0.025839485228061676, 0.017117222771048546, 0.019267363473773003, 0.02595709264278412, 0.025986410677433014, 0.020939916372299194, 0.018719445914030075, 0.025585845112800598, 0.02293906919658184, 0.02622481808066368, 0.022047430276870728, 0.021861188113689423, 0.022694697603583336, 0.023369500413537025, 0.02423090673983097, 0.0265088751912117, 0.022951599210500717, 0.018976010382175446, 0.020925505086779594, 0.02098897099494934, 0.02202274091541767, 0.018505338579416275, 0.016559448093175888, 0.01988331973552704, 0.02299809455871582, 0.003827751148492098, 0.004883859306573868, 0.008898908272385597, 0.007353812921792269, 0.00892641767859459, 0.01370189432054758, 0.008789642713963985, 0.012595056556165218, 0.01275479793548584, 0.00883371103554964, 0.012025240808725357, 0.009115662425756454, 0.012999404221773148, 0.014506540261209011, 0.020967358723282814, 0.01714489795267582, 0.02420124039053917, 0.019568070769309998, 0.017702268436551094, 0.018722597509622574, 0.01945433020591736, 0.017426593229174614, 0.01869715377688408, 0.016436398029327393, 0.016327016055583954, 0.012966929003596306, 0.013307984918355942, 0.014396192505955696, 0.013778358697891235, 0.022589465603232384, 0.021656354889273643, 0.016389548778533936, 0.02247057482600212, 0.017204301431775093, 0.021482277661561966, 0.018845276907086372, 0.022309711202979088, 0.011499703861773014, 0.011205148883163929, 0.011524610221385956, 0.007403869181871414, 0.009169941768050194, 0.020980697125196457, 0.01089428924024105, 0.016872623935341835, 0.022886279970407486, 0.017663205042481422, 0.01712043769657612, 0.014489282853901386, 0.015639809891581535, 0.024030454456806183, 0.01717924140393734, 0.018432632088661194, 0.020140625536441803, 0.02247866429388523, 0.016761768609285355, 0.01940707117319107, 0.022004304453730583, 0.021723560988903046, 0.01933111995458603, 0.021296733990311623, 0.018564797937870026, 0.01568627543747425, 0.004982206504791975, 0.010457516647875309, 0.021360382437705994, 0.017433585599064827, 0.017708580940961838, 0.024207010865211487, 0.014586322009563446, 0.01683381013572216, 0.01907714270055294, 0.0276124719530344, 0.025768911466002464, 0.028608892112970352, 0.022883566096425056, 0.02431502752006054, 0.02103886939585209, 0.023843586444854736, 0.021627435460686684, 0.022521449252963066, 0.023082472383975983, 0.023172905668616295, 0.023203236982226372, 0.02740378864109516, 0.023341670632362366, 0.023211294785141945, 0.025172989815473557, 0.01980670541524887, 0.024708956480026245, 0.022923313081264496, 0.02711624652147293, 0.032932691276073456, 0.026994885876774788, 0.021210677921772003, 0.015115448273718357, 0.01900826394557953, 0.028401663526892662, 0.023425361141562462, 0.01839544251561165, 0.019132502377033234, 0.01909535750746727, 0.0212110448628664, 0.018919562920928, 0.027418581768870354, 0.026652324944734573, 0.02420124039053917, 0.020828373730182648, 0.021620983257889748, 0.021746881306171417, 0.0186960119754076, 0.015611965209245682, 0.017914725467562675, 0.013303242623806, 0.019233066588640213, 0.020481066778302193, 0.01357304397970438, 0.017610661685466766, 0.020159846171736717, 0.022121788933873177, 0.025316456332802773, 0.020345032215118408, 0.02050548419356346, 0.020863309502601624, 0.009821322746574879, 0.010083036497235298, 0.013419602066278458, 0.019246762618422508, 0.020325202494859695, 0.018694927915930748, 0.02062470279633999, 0.02153480052947998, 0.0207012090831995, 0.016698474064469337, 0.02026546560227871, 0.016930963844060898, 0.01766190119087696, 0.014506540261209011, 0.015155131928622723, 0.01512264832854271, 0.01835518516600132, 0.01887468621134758, 0.01914214715361595, 0.010855302214622498, 0.007273160852491856, 0.012311737984418869, 0.017835909500718117, 0.017695961520075798, 0.025659386068582535, 0.0232806745916605, 0.018750745803117752, 0.02407473884522915, 0.030839111655950546, 0.029754819348454475, 0.02972651645541191, 0.023139312863349915, 0.02646389603614807, 0.023914337158203125, 0.02427648939192295, 0.024901703000068665, 0.024495162069797516, 0.020369039848446846, 0.020483506843447685, 0.02389727719128132, 0.016354303807020187, 0.006086645182222128, 0.00917759258300066, 0.011957432143390179, 0.01849200576543808, 0.01742035523056984, 0.02140818163752556, 0.023892007768154144, 0.02335049770772457, 0.02137313410639763, 0.015778858214616776, 0.009171033278107643, 0.009413727559149265, 0.01054377481341362, 0.013104598969221115, 0.008635164238512516, 0.013381123542785645, 0.011724300682544708, 0.013829280622303486, 0.01902044750750065, 0.017140816897153854, 0.008767715655267239, 0.005696653388440609, 0.01037814561277628, 0.006343507207930088, 0.0063170441426336765, 0.01143674086779356, 0.008885202929377556, 0.01639731042087078, 0.013802951201796532, 0.021301915869116783, 0.014934217557311058, 0.01247327122837305, 0.01505376398563385, 0.012369171716272831, 0.017194028943777084, 0.020870601758360863, 0.013115535490214825, 0.01512264832854271, 0.01584653928875923, 0.02607453241944313, 0.01901140622794628, 0.018110329285264015, 0.017692767083644867, 0.026091082021594048, 0.021192999556660652, 0.02638206072151661, 0.01693500392138958, 0.013587604276835918, 0.017089959233999252, 0.02129431441426277, 0.021765127778053284, 0.030879713594913483, 0.027049772441387177, 0.030681412667036057, 0.024910608306527138, 0.01857844926416874, 0.02248520776629448, 0.028554502874612808, 0.024180034175515175, 0.02629387378692627, 0.02479437366127968, 0.022314541041851044, 0.02229865826666355, 0.020038168877363205, 0.022275162860751152, 0.025680655613541603, 0.022461172193288803, 0.01609250158071518, 0.02299809455871582, 0.017625343054533005, 0.02021883800625801, 0.01756259612739086, 0.015619411133229733, 0.008339290507137775, 0.01910299062728882, 0.017314990982413292, 0.02063700370490551, 0.014621284790337086, 0.01807517372071743, 0.01792757213115692, 0.01716533489525318, 0.011760513298213482, 0.0074207060970366, 0.006993836257606745, 0.008420303463935852, 0.014377376064658165, 0.020035993307828903, 0.010206503793597221, 0.010347288101911545, 0.00535140885040164, 0.006176505703479052, 0.004660055041313171, 