last_val_loss,dataset,ul2,causal_denoisers,noncausal_masking,causal_divider,s_divider,r_divider,x_divider,randomize_denoiser_settings,randomize_mask_width,no_special_tokens,alternate_denoisers,progressive_tasks,model_scale,depth,width,num_params,num_non_embedding_params,num_heads,lr_mult,linear_value,seed,run_num,max_epochs,max_steps,max_tokens,max_time_seconds,gpu_capacity_scalar,train_loss_causal,train_pplx_causal,train_acc_causal,train_loss_s,train_pplx_s,train_loss_r,train_pplx_r,train_loss_x,train_pplx_x,train_acc_x_causal,train_acc_r_causal,train_acc_s_causal,train_acc_x_masked,train_acc_r_masked,train_acc_s_masked,val_loss_causal,val_pplx_causal,val_acc_causal,val_loss_s,val_pplx_s,val_loss_r,val_pplx_r,val_loss_x,val_pplx_x,grad_norm,cumulative_time,tokens_seen,epoch,batch_size,seq_length,learning_rate,weight_decay
2.7864584922790527,fineweb,false,false,false,1.0,0.0,0.0,0.0,false,false,false,false,false,16.80486971279296,35,1664,773187619,605755939,26,1.0,false,1600,1,1.0,1000000000,1000000000000,1000000000,1.9,"[10.9375, 7.46875, 6.875, 6.4375, 6.4375, 6.34375, 6.125, 6.0625, 6.15625, 6.03125, 6.1875, 5.84375, 5.78125, 5.84375, 5.84375, 5.6875, 5.78125, 5.625, 5.59375, 5.53125, 5.375, 5.5625, 5.21875, 5.34375, 5.34375, 5.40625, 5.3125, 5.3125, 5.3125, 5.21875, 5.09375, 5.125, 5.0625, 5.21875, 5.0625, 5.125, 5.1875, 5.125, 4.875, 4.9375, 4.96875, 4.90625, 4.9375, 5.0, 4.875, 4.875, 4.84375, 4.8125, 4.875, 4.9375, 4.84375, 4.875, 4.9375, 4.78125, 4.90625, 4.65625, 4.78125, 4.75, 4.84375, 4.75, 4.75, 4.53125, 4.65625, 4.53125, 4.90625, 4.71875, 4.65625, 4.65625, 4.625, 4.5625, 4.40625, 4.53125, 4.4375, 4.46875, 4.34375, 4.4375, 4.40625, 4.34375, 4.375, 4.375, 4.34375, 4.25, 4.25, 4.25, 4.25, 4.34375, 4.375, 4.34375, 4.34375, 4.28125, 4.3125, 4.1875, 4.28125, 4.21875, 4.25, 4.125, 4.0625, 4.28125, 4.125, 4.15625, 4.09375, 4.03125, 4.0625, 4.1875, 3.890625, 4.09375, 4.125, 3.96875, 4.125, 3.859375, 3.984375, 4.1875, 4.125, 4.15625, 4.09375, 4.0, 4.0625, 4.0, 3.890625, 4.125, 3.953125, 3.859375, 3.84375, 3.96875, 3.9375, 3.9375, 4.0, 3.96875, 3.75, 3.921875, 3.796875, 3.921875, 3.71875, 3.75, 3.8125, 3.90625, 3.921875, 3.953125, 3.953125, 3.8125, 3.78125, 3.890625, 3.65625, 4.0, 4.03125, 3.765625, 3.890625, 4.0, 3.953125, 3.9375, 3.875, 3.84375, 3.921875, 3.8125, 3.875, 3.71875, 3.78125, 3.765625, 3.640625, 3.796875, 3.59375, 3.84375, 3.84375, 3.84375, 3.828125, 3.890625, 3.6875, 3.734375, 3.671875, 3.671875, 3.84375, 3.59375, 3.640625, 3.734375, 3.78125, 3.5, 3.734375, 3.71875, 3.625, 3.703125, 3.609375, 3.703125, 3.640625, 3.40625, 3.671875, 3.609375, 3.515625, 3.765625, 3.640625, 3.5625, 3.65625, 3.75, 3.4375, 3.625, 3.609375, 3.71875, 3.78125, 3.46875, 3.71875, 3.390625, 3.78125, 3.671875, 3.625, 3.609375, 3.4375, 3.5625, 3.625, 3.515625, 3.6875, 3.609375, 3.53125, 3.640625, 3.59375, 3.453125, 3.484375, 3.5, 3.671875, 3.46875, 3.609375, 3.46875, 3.46875, 3.703125, 3.625, 3.4375, 3.484375, 3.65625, 3.609375, 3.578125, 3.5, 3.59375, 3.359375, 3.484375, 3.546875, 3.515625, 3.53125, 3.359375, 3.453125, 3.40625, 3.609375, 3.5625, 3.4375, 3.515625, 3.5, 3.59375, 3.4375, 3.546875, 3.40625, 3.484375, 3.28125, 3.5, 3.359375, 3.375, 3.46875, 3.375, 3.53125, 3.46875, 3.59375, 3.375, 3.359375, 3.421875, 3.234375, 3.375, 3.640625, 3.46875, 3.453125, 3.375, 3.375, 3.328125, 3.3125, 3.390625, 3.484375, 3.390625, 3.3125, 3.40625, 3.453125, 3.375, 3.515625, 3.484375, 3.453125, 3.34375, 3.40625, 3.390625, 3.265625, 3.53125, 3.328125, 3.546875, 3.53125, 3.453125, 3.40625, 3.390625, 3.21875, 3.4375, 3.421875, 3.515625, 3.375, 3.375, 3.21875, 3.46875, 3.3125, 3.4375, 3.359375, 3.40625, 3.546875, 3.171875, 3.375, 3.46875, 3.375, 3.359375, 3.390625, 3.265625, 3.421875, 3.296875, 3.34375, 3.4375, 3.375, 3.375, 3.34375, 3.3125, 3.296875, 3.296875, 3.234375, 3.421875, 3.21875, 3.328125, 3.390625, 3.453125, 3.5, 3.296875, 3.4375, 3.34375, 3.359375, 3.390625, 3.375, 3.484375, 3.421875, 3.25, 3.421875, 3.34375, 3.421875, 3.328125, 3.25, 3.40625, 3.234375, 3.40625, 3.28125, 3.390625, 3.25, 3.234375, 3.21875, 3.34375, 3.53125, 3.171875, 2.984375, 3.28125, 3.390625, 3.140625, 3.234375, 3.40625, 3.25, 3.234375, 3.265625, 3.390625, 3.390625, 3.1875, 3.390625, 3.21875, 3.28125, 3.125, 3.234375, 3.21875, 3.265625, 3.1875, 3.28125, 3.296875, 3.28125, 3.21875, 3.390625, 3.171875, 3.25, 3.3125, 3.359375, 3.171875, 3.421875, 3.359375, 3.21875, 3.328125, 3.4375, 3.328125, 3.359375, 3.234375, 3.25, 3.15625, 3.1875, 3.234375, 3.265625, 3.296875, 3.15625, 3.375, 3.328125, 3.171875, 3.3125, 3.25, 3.171875, 3.25, 3.125, 3.25, 3.25, 3.265625, 3.34375, 3.328125, 3.359375, 3.34375, 3.46875, 3.171875, 3.21875, 3.390625, 3.078125, 3.234375, 3.390625, 3.203125, 3.171875, 3.25, 3.140625, 3.21875, 3.28125, 3.34375, 3.296875, 3.234375, 3.15625, 3.296875, 3.21875, 3.21875, 3.25, 3.125, 3.140625, 3.1875, 3.140625, 3.28125, 3.171875, 3.28125, 3.34375, 3.25, 3.125, 3.203125, 3.265625, 3.15625, 3.1875, 3.15625, 3.34375, 3.171875, 3.21875, 3.15625, 3.15625, 3.046875, 3.359375, 3.234375, 3.265625, 3.15625, 3.15625, 3.09375, 3.21875, 3.234375, 3.0625, 3.28125, 3.171875, 3.15625, 3.25, 3.265625, 3.171875, 3.125, 3.140625, 3.25, 3.25, 3.0625, 3.109375, 3.1875, 3.21875, 3.390625, 3.203125, 3.328125, 3.0625, 3.0625, 3.03125, 3.09375, 3.15625, 3.171875, 3.203125, 3.1875, 3.15625, 2.96875, 3.109375, 3.25, 3.0625, 3.078125, 3.234375, 3.078125, 3.15625, 3.21875, 3.0625, 3.015625, 3.078125, 3.203125, 3.1875, 3.171875, 3.265625, 3.125, 3.109375, 3.109375, 3.109375, 3.140625, 3.34375, 3.296875, 3.1875, 3.21875, 3.25, 3.234375, 3.296875, 3.28125, 3.375, 3.28125, 3.09375, 3.171875, 3.203125, 3.328125, 3.125, 3.28125, 3.203125, 3.15625, 3.125, 2.96875, 3.109375, 3.171875, 3.140625, 3.109375, 3.1875, 3.21875, 3.078125, 3.140625, 3.15625, 3.296875, 3.046875, 3.171875, 3.171875, 3.109375, 3.140625, 2.96875, 2.96875, 3.328125, 3.09375, 3.25, 3.3125, 3.0625, 3.046875, 3.140625, 3.203125, 3.0625, 3.203125, 2.96875, 3.078125, 3.125, 3.28125, 3.265625, 3.140625, 3.375, 3.265625, 3.484375, 3.21875, 3.1875, 3.0625, 3.09375, 3.15625, 3.171875, 3.09375, 3.109375, 3.1875, 3.0625, 3.234375, 3.140625, 2.953125, 2.84375, 3.15625, 3.109375, 3.09375, 2.9375, 3.078125, 3.046875, 3.0, 3.171875, 2.9375, 3.09375, 3.0, 3.15625, 3.09375, 3.171875, 3.078125, 3.1875, 3.203125, 3.3125, 3.125, 3.03125, 3.125, 2.875, 3.125, 3.015625, 3.046875, 3.109375, 3.171875, 3.0, 3.15625, 3.078125, 3.09375, 3.234375, 3.015625, 3.078125, 3.140625, 3.0, 3.140625, 3.203125, 3.25, 3.109375, 3.109375, 3.109375, 3.21875, 3.203125, 3.0625, 3.265625, 3.03125, 3.078125, 3.109375, 3.046875, 3.15625, 3.046875, 3.125, 3.078125, 3.03125, 3.21875, 3.0, 3.125, 3.0625, 3.046875, 3.0625, 3.15625, 3.046875, 3.0, 3.1875, 3.0, 2.9375, 2.953125, 3.046875, 3.078125, 3.078125, 3.015625, 3.1875, 3.125, 2.9375, 2.953125, 2.96875, 2.96875, 3.234375, 2.96875, 2.984375, 3.046875, 3.125, 2.890625, 2.96875, 2.90625, 3.09375, 2.828125, 3.15625, 3.015625, 3.0625, 2.859375, 3.03125, 2.96875, 3.265625, 2.96875, 3.09375, 3.03125, 2.953125, 3.09375, 3.109375, 3.109375, 3.046875, 3.0625, 3.046875, 3.140625, 3.140625, 3.0625, 3.015625, 2.953125, 3.0, 2.90625, 2.9375, 2.984375, 3.140625, 3.0625, 3.0625, 2.96875, 3.0, 3.140625, 3.140625, 2.96875, 3.15625, 3.09375, 3.03125, 3.0625, 3.09375, 3.0, 3.046875, 2.96875, 2.984375, 3.09375, 3.046875, 2.96875, 3.0, 3.0625, 3.171875, 2.984375, 3.140625, 3.0625, 3.125, 3.15625, 3.03125, 3.03125, 3.0, 2.875, 3.078125, 2.9375, 2.9375, 3.15625, 3.109375, 2.984375, 2.859375, 3.203125, 3.140625, 3.03125, 3.015625, 2.953125, 3.125, 3.09375, 3.046875, 2.96875, 3.046875, 3.078125, 3.03125, 2.984375, 3.03125, 3.0625, 3.046875, 3.0625, 3.046875, 2.921875, 2.984375, 3.078125, 3.046875, 2.96875, 2.984375, 2.890625, 2.9375, 3.078125, 2.984375, 2.828125, 2.84375, 3.328125, 3.0, 2.921875, 3.109375, 2.953125, 3.125, 3.15625, 3.03125, 3.1875, 2.953125, 3.0625, 3.0625, 2.96875, 3.015625, 2.90625, 3.125, 3.046875, 3.046875, 3.046875, 3.078125, 3.09375, 2.953125, 3.078125, 2.921875, 3.03125, 2.9375, 3.140625, 2.984375, 2.90625, 3.046875, 3.03125, 3.078125, 3.0625, 3.0625, 2.953125, 3.0625, 3.109375, 3.09375, 2.9375, 3.15625, 3.140625, 2.953125, 2.921875, 3.015625, 3.0, 3.0625, 2.96875, 2.859375, 2.921875, 2.875, 3.0, 2.921875, 2.765625, 3.0625, 3.046875, 3.0625, 2.84375, 2.90625, 3.046875, 2.984375, 3.0625, 2.9375, 2.890625, 3.21875, 3.09375, 3.078125, 2.96875, 2.890625, 2.90625, 2.953125, 2.96875, 3.046875, 2.96875, 3.078125, 3.046875, 2.828125, 2.953125, 2.984375, 3.171875, 2.9375, 3.03125, 3.078125, 2.9375, 3.015625, 3.015625, 2.890625, 2.875, 2.921875, 2.90625, 2.890625, 3.109375, 2.96875, 2.953125, 3.015625, 2.875, 3.0, 2.96875, 2.84375, 2.890625, 3.046875, 2.890625, 3.0, 3.109375, 3.015625, 2.859375, 2.96875, 2.96875, 2.921875, 2.96875, 2.890625, 2.921875, 2.9375, 2.921875, 2.921875, 3.0625, 2.875, 2.875, 3.0625, 3.046875, 2.921875, 2.96875, 2.90625, 2.9375, 2.90625, 2.9375, 3.03125, 2.90625, 2.90625, 2.859375, 2.96875, 2.984375, 2.921875, 2.984375, 2.734375, 3.09375, 2.984375, 2.8125, 3.09375, 2.984375, 2.890625, 2.9375, 2.96875, 2.8125, 2.875, 3.03125, 3.125, 3.0, 3.0625, 3.109375, 3.03125, 2.875, 2.953125, 3.03125, 2.953125, 2.953125, 3.015625, 2.921875, 3.0, 2.984375, 2.921875, 2.890625, 2.921875, 3.0, 2.8125, 3.015625, 2.875, 2.90625, 3.09375, 2.875, 2.96875, 2.90625, 2.859375, 3.015625, 2.875, 2.921875, 2.90625, 3.0, 2.90625, 2.984375, 2.84375, 2.96875, 2.765625, 2.953125, 2.953125, 2.90625, 2.796875, 3.015625, 2.75, 2.96875, 3.015625, 2.875, 2.953125, 2.859375, 2.859375, 3.015625, 2.984375, 3.0625, 2.875, 2.8125, 3.078125, 2.953125, 2.890625, 2.96875, 3.03125, 2.875, 2.9375, 2.890625, 2.9375, 2.921875, 3.0, 2.890625, 2.96875, 2.875, 2.8125, 2.84375, 2.890625, 2.890625, 2.953125, 2.96875, 2.796875, 2.890625, 2.8125, 2.90625, 2.96875, 3.078125, 3.046875, 2.921875, 2.96875, 2.921875, 2.859375, 2.953125, 2.984375, 2.90625, 2.96875, 2.796875, 2.828125, 2.9375, 2.96875, 2.859375, 2.921875, 2.859375, 2.875, 2.90625, 2.9375, 2.890625, 2.890625, 3.03125, 2.828125, 2.890625, 2.953125, 2.890625, 2.90625, 2.8125, 2.859375, 2.9375, 2.890625, 2.84375, 3.015625, 2.96875, 2.859375, 2.890625, 3.09375, 2.96875, 2.765625, 2.953125, 2.875, 2.890625, 3.0, 2.90625, 2.921875, 3.03125, 2.796875, 2.96875, 2.71875, 2.984375, 2.84375, 2.953125, 2.953125, 2.78125, 2.859375, 2.984375, 2.765625, 2.71875, 2.796875, 2.921875, 2.96875, 3.140625, 2.8125, 2.78125, 2.96875, 2.84375, 2.890625, 2.953125, 2.796875, 2.90625, 2.90625, 2.875, 2.8125, 2.953125, 2.703125, 2.921875, 2.953125, 2.96875, 2.75, 3.0625, 2.828125, 2.796875, 2.84375, 2.921875, 2.90625, 2.890625, 2.90625, 2.96875, 2.828125, 2.84375, 3.015625, 3.0, 2.953125, 2.84375, 2.921875, 2.828125, 2.890625, 2.703125, 2.78125, 3.03125, 2.96875, 2.84375, 2.9375, 2.859375, 2.90625, 2.859375, 2.96875, 2.78125, 2.953125, 3.078125, 2.71875, 2.9375, 3.046875, 2.8125, 2.71875, 2.875, 2.890625, 2.796875, 2.875, 2.828125, 3.03125, 2.875, 2.921875, 2.796875, 2.9375, 2.828125, 2.8125, 2.921875, 2.6875, 2.96875, 2.859375, 2.90625, 2.6875, 2.90625, 2.75, 2.890625, 2.828125, 2.796875, 2.90625, 2.84375, 2.765625, 2.8125, 2.78125, 2.890625, 2.75, 2.8125, 2.921875, 2.84375, 2.875, 2.859375, 3.0, 2.890625, 2.703125, 2.859375, 2.953125, 2.828125, 2.953125, 2.828125, 2.84375, 2.9375, 2.765625, 2.96875, 2.84375, 2.90625, 2.890625, 2.671875, 2.578125, 3.078125, 3.0, 2.828125, 2.84375, 2.953125, 2.828125, 2.8125, 2.875, 2.953125, 2.96875, 2.78125, 2.828125, 2.859375, 2.828125, 2.796875, 2.625, 2.78125, 2.9375, 2.84375, 2.671875, 2.96875, 2.9375, 2.75, 2.8125, 2.65625, 2.8125, 2.875, 2.8125, 2.875, 2.875, 2.6875, 2.90625, 2.875, 2.875, 2.765625, 2.90625, 2.8125, 2.796875, 2.796875, 2.59375, 3.0, 2.671875, 2.75, 2.78125, 2.828125, 2.828125, 2.890625, 2.796875, 2.796875, 2.859375, 3.0, 2.859375, 2.828125, 2.9375, 2.796875, 2.828125, 2.96875, 2.765625, 2.8125, 2.78125, 2.75, 2.84375, 2.859375, 2.75, 2.828125, 3.03125, 2.671875, 2.859375, 2.96875, 2.859375, 2.828125, 2.78125, 2.84375, 2.609375, 2.828125, 2.765625, 2.796875, 2.734375, 2.75, 2.734375, 2.734375, 2.765625, 2.734375, 2.6875, 2.703125, 2.71875, 2.875, 2.640625, 2.71875, 2.75, 2.640625, 2.734375, 2.828125, 2.71875, 2.875, 2.75, 2.78125, 2.78125, 2.765625, 2.65625, 2.8125, 2.671875, 2.84375, 2.8125, 2.734375, 2.59375, 2.828125, 2.6875, 2.625, 2.625, 2.5625, 2.609375, 2.75, 2.578125, 2.640625, 2.640625, 2.6875, 2.640625, 2.5625, 2.515625, 2.59375, 2.71875, 2.65625, 2.796875, 2.703125, 2.65625, 2.625, 2.796875, 2.65625, 2.640625, 2.703125, 2.765625, 2.578125, 2.5625, 2.890625, 2.671875]","[56320.0, 1752.0, 968.0, 624.0, 624.0, 568.0, 458.0, 430.0, 472.0, 416.0, 488.0, 346.0, 324.0, 346.0, 346.0, 296.0, 324.0, 278.0, 270.0, 253.0, 216.0, 260.0, 185.0, 209.0, 209.0, 223.0, 203.0, 203.0, 203.0, 185.0, 163.0, 168.0, 158.0, 185.0, 158.0, 168.0, 179.0, 168.0, 131.0, 140.0, 144.0, 135.0, 140.0, 149.0, 131.0, 131.0, 127.0, 123.0, 131.0, 140.0, 127.0, 131.0, 140.0, 119.5, 135.0, 105.5, 119.5, 115.5, 127.0, 115.5, 115.5, 93.0, 105.5, 93.0, 135.0, 112.0, 105.5, 105.5, 102.0, 96.0, 82.0, 93.0, 84.5, 87.5, 77.0, 84.5, 82.0, 77.0, 79.5, 79.5, 77.0, 70.0, 70.0, 70.0, 70.0, 77.0, 79.5, 77.0, 77.0, 72.5, 74.5, 66.0, 72.5, 68.0, 70.0, 62.0, 58.25, 72.5, 62.0, 64.0, 60.0, 56.25, 58.25, 66.0, 49.0, 60.0, 62.0, 53.0, 62.0, 47.5, 53.75, 66.0, 62.0, 64.0, 60.0, 54.75, 58.25, 54.75, 49.0, 62.0, 52.25, 47.5, 46.75, 53.0, 51.25, 51.25, 54.75, 53.0, 42.5, 50.5, 44.5, 50.5, 41.25, 42.5, 45.25, 49.75, 50.5, 52.25, 52.25, 45.25, 44.0, 49.0, 38.75, 54.75, 56.25, 43.25, 49.0, 54.75, 52.25, 51.25, 48.25, 46.75, 50.5, 45.25, 48.25, 41.25, 44.0, 43.25, 38.25, 44.5, 36.5, 46.75, 46.75, 46.75, 46.0, 49.0, 40.0, 42.0, 39.25, 39.25, 46.75, 36.5, 38.25, 42.0, 44.0, 33.25, 42.0, 41.25, 37.5, 40.5, 37.0, 40.5, 38.25, 30.125, 39.25, 37.0, 33.75, 43.25, 38.25, 35.25, 38.75, 42.5, 31.125, 37.5, 37.0, 41.25, 44.0, 32.0, 41.25, 29.75, 44.0, 39.25, 37.5, 37.0, 31.125, 35.25, 37.5, 33.75, 40.0, 37.0, 34.25, 38.25, 36.5, 31.625, 32.5, 33.25, 39.25, 32.0, 37.0, 32.0, 32.0, 40.5, 37.5, 31.125, 32.5, 38.75, 37.0, 35.75, 33.25, 36.5, 28.75, 32.5, 34.75, 33.75, 34.25, 28.75, 31.625, 30.125, 37.0, 35.25, 31.125, 33.75, 33.25, 36.5, 31.125, 34.75, 30.125, 32.5, 26.625, 33.25, 28.75, 29.25, 32.0, 29.25, 34.25, 32.0, 36.5, 29.25, 28.75, 30.625, 25.375, 29.25, 38.25, 32.0, 31.625, 29.25, 29.25, 27.875, 27.5, 29.75, 32.5, 29.75, 27.5, 30.125, 31.625, 29.25, 33.75, 32.5, 31.625, 28.375, 30.125, 29.75, 26.25, 34.25, 27.875, 34.75, 34.25, 31.625, 30.125, 29.75, 25.0, 31.125, 30.625, 33.75, 29.25, 29.25, 25.0, 32.0, 27.5, 31.125, 28.75, 30.125, 34.75, 23.875, 29.25, 32.0, 29.25, 28.75, 29.75, 26.25, 30.625, 27.0, 28.375, 31.125, 29.25, 29.25, 28.375, 27.5, 27.0, 27.0, 25.375, 30.625, 25.0, 27.875, 29.75, 31.625, 33.25, 27.0, 31.125, 28.375, 28.75, 29.75, 29.25, 32.5, 30.625, 25.75, 30.625, 28.375, 30.625, 27.875, 25.75, 30.125, 25.375, 30.125, 26.625, 29.75, 25.75, 25.375, 25.0, 28.375, 34.25, 23.875, 19.75, 26.625, 29.75, 23.125, 25.375, 30.125, 25.75, 25.375, 26.25, 29.75, 29.75, 24.25, 29.75, 25.0, 26.625, 22.75, 25.375, 25.0, 26.25, 24.25, 26.625, 27.0, 26.625, 25.0, 29.75, 23.875, 25.75, 27.5, 28.75, 23.875, 30.625, 28.75, 25.0, 27.875, 31.125, 27.875, 28.75, 25.375, 25.75, 23.5, 24.25, 25.375, 26.25, 27.0, 23.5, 29.25, 27.875, 23.875, 27.5, 25.75, 23.875, 25.75, 22.75, 25.75, 25.75, 26.25, 28.375, 27.875, 28.75, 28.375, 32.0, 23.875, 25.0, 29.75, 21.75, 25.375, 29.75, 24.625, 23.875, 25.75, 23.125, 25.0, 26.625, 28.375, 27.0, 25.375, 23.5, 27.0, 25.0, 25.0, 25.75, 22.75, 23.125, 24.25, 23.125, 26.625, 23.875, 26.625, 28.375, 25.75, 22.75, 24.625, 26.25, 23.5, 24.25, 23.5, 28.375, 23.875, 25.0, 23.5, 23.5, 21.0, 28.75, 25.375, 26.25, 23.5, 23.5, 22.125, 25.0, 25.375, 21.375, 26.625, 23.875, 23.5, 25.75, 26.25, 23.875, 22.75, 23.125, 25.75, 25.75, 21.375, 22.375, 24.25, 25.0, 29.75, 24.625, 27.875, 21.375, 21.375, 20.75, 22.125, 23.5, 23.875, 24.625, 24.25, 23.5, 19.5, 22.375, 25.75, 21.375, 21.75, 25.375, 21.75, 23.5, 25.0, 21.375, 20.375, 21.75, 24.625, 24.25, 23.875, 26.25, 22.75, 22.375, 22.375, 22.375, 23.125, 28.375, 27.0, 24.25, 25.0, 25.75, 25.375, 27.0, 26.625, 29.25, 26.625, 22.125, 23.875, 24.625, 27.875, 22.75, 26.625, 24.625, 23.5, 22.75, 19.5, 22.375, 23.875, 23.125, 22.375, 24.25, 25.0, 21.75, 23.125, 23.5, 27.0, 21.0, 23.875, 23.875, 22.375, 23.125, 19.5, 19.5, 27.875, 22.125, 25.75, 27.5, 21.375, 21.0, 23.125, 24.625, 21.375, 24.625, 19.5, 21.75, 22.75, 26.625, 26.25, 23.125, 29.25, 26.25, 32.5, 25.0, 24.25, 21.375, 22.125, 23.5, 23.875, 22.125, 22.375, 24.25, 21.375, 25.375, 23.125, 19.125, 17.25, 23.5, 22.375, 22.125, 18.875, 21.75, 21.0, 20.125, 23.875, 18.875, 22.125, 20.125, 23.5, 22.125, 23.875, 21.75, 24.25, 24.625, 27.5, 22.75, 20.75, 22.75, 17.75, 22.75, 20.375, 21.0, 22.375, 23.875, 20.125, 23.5, 21.75, 22.125, 25.375, 20.375, 21.75, 23.125, 20.125, 23.125, 24.625, 25.75, 22.375, 22.375, 22.375, 25.0, 24.625, 21.375, 26.25, 20.75, 21.75, 22.375, 21.0, 23.5, 21.0, 22.75, 21.75, 20.75, 25.0, 20.125, 22.75, 21.375, 21.0, 21.375, 23.5, 21.0, 20.125, 24.25, 20.125, 18.875, 19.125, 21.0, 21.75, 21.75, 20.375, 24.25, 22.75, 18.875, 19.125, 19.5, 19.5, 25.375, 19.5, 19.75, 21.0, 22.75, 18.0, 19.5, 18.25, 22.125, 16.875, 23.5, 20.375, 21.375, 17.5, 20.75, 19.5, 26.25, 19.5, 22.125, 20.75, 19.125, 22.125, 22.375, 22.375, 21.0, 21.375, 21.0, 23.125, 23.125, 21.375, 20.375, 19.125, 20.125, 18.25, 18.875, 19.75, 23.125, 21.375, 21.375, 19.5, 20.125, 23.125, 23.125, 19.5, 23.5, 22.125, 20.75, 21.375, 22.125, 20.125, 21.0, 19.5, 19.75, 22.125, 21.0, 19.5, 20.125, 21.375, 23.875, 19.75, 23.125, 21.375, 22.75, 23.5, 20.75, 20.75, 20.125, 17.75, 21.75, 18.875, 18.875, 23.5, 22.375, 19.75, 17.5, 24.625, 23.125, 20.75, 20.375, 19.125, 22.75, 22.125, 21.0, 19.5, 21.0, 21.75, 20.75, 19.75, 20.75, 21.375, 21.0, 21.375, 21.0, 18.625, 19.75, 21.75, 21.0, 19.5, 19.75, 18.0, 18.875, 21.75, 19.75, 16.875, 17.25, 27.875, 20.125, 18.625, 22.375, 19.125, 22.75, 23.5, 20.75, 24.25, 19.125, 21.375, 21.375, 19.5, 20.375, 18.25, 22.75, 21.0, 21.0, 21.0, 21.75, 22.125, 19.125, 21.75, 18.625, 20.75, 18.875, 23.125, 19.75, 18.25, 21.0, 20.75, 21.75, 21.375, 21.375, 19.125, 21.375, 22.375, 22.125, 18.875, 23.5, 23.125, 19.125, 18.625, 20.375, 20.125, 21.375, 19.5, 17.5, 18.625, 17.75, 20.125, 18.625, 15.875, 21.375, 21.0, 21.375, 17.25, 18.25, 21.0, 19.75, 21.375, 18.875, 18.0, 25.0, 22.125, 21.75, 19.5, 18.0, 18.25, 19.125, 19.5, 21.0, 19.5, 21.75, 21.0, 16.875, 19.125, 19.75, 23.875, 18.875, 20.75, 21.75, 18.875, 20.375, 20.375, 18.0, 17.75, 18.625, 18.25, 18.0, 22.375, 19.5, 19.125, 20.375, 17.75, 20.125, 19.5, 17.25, 18.0, 21.0, 18.0, 20.125, 22.375, 20.375, 17.5, 19.5, 19.5, 18.625, 19.5, 18.0, 18.625, 18.875, 18.625, 18.625, 21.375, 17.75, 17.75, 21.375, 21.0, 18.625, 19.5, 18.25, 18.875, 18.25, 18.875, 20.75, 18.25, 18.25, 17.5, 19.5, 19.75, 18.625, 19.75, 15.4375, 22.125, 19.75, 16.625, 22.125, 19.75, 18.0, 18.875, 19.5, 16.625, 17.75, 20.75, 22.75, 20.125, 21.375, 22.375, 20.75, 17.75, 19.125, 20.75, 19.125, 19.125, 20.375, 18.625, 20.125, 19.75, 18.625, 18.0, 18.625, 20.125, 16.625, 20.375, 17.75, 18.25, 22.125, 17.75, 19.5, 18.25, 17.5, 20.375, 17.75, 18.625, 18.25, 20.125, 18.25, 19.75, 17.25, 19.5, 15.875, 19.125, 19.125, 18.25, 16.375, 20.375, 15.625, 19.5, 20.375, 17.75, 19.125, 17.5, 17.5, 20.375, 19.75, 21.375, 17.75, 16.625, 21.75, 19.125, 18.0, 19.5, 20.75, 17.75, 18.875, 18.0, 18.875, 18.625, 20.125, 18.0, 19.5, 17.75, 16.625, 17.25, 18.0, 18.0, 19.125, 19.5, 16.375, 18.0, 16.625, 18.25, 19.5, 21.75, 21.0, 18.625, 19.5, 18.625, 17.5, 19.125, 19.75, 18.25, 19.5, 16.375, 16.875, 18.875, 19.5, 17.5, 18.625, 17.5, 17.75, 18.25, 18.875, 18.0, 18.0, 20.75, 16.875, 18.0, 19.125, 18.0, 18.25, 16.625, 17.5, 18.875, 18.0, 17.25, 20.375, 19.5, 17.5, 18.0, 22.125, 19.5, 15.875, 19.125, 17.75, 18.0, 20.125, 18.25, 18.625, 20.75, 16.375, 19.5, 15.1875, 19.75, 17.25, 19.125, 19.125, 16.125, 17.5, 19.75, 15.875, 15.1875, 16.375, 18.625, 19.5, 23.125, 16.625, 16.125, 19.5, 17.25, 18.0, 19.125, 16.375, 18.25, 18.25, 17.75, 16.625, 19.125, 14.9375, 18.625, 19.125, 19.5, 15.625, 21.375, 16.875, 16.375, 17.25, 18.625, 18.25, 18.0, 18.25, 19.5, 16.875, 17.25, 20.375, 20.125, 19.125, 17.25, 18.625, 16.875, 18.0, 14.9375, 16.125, 20.75, 19.5, 17.25, 18.875, 17.5, 18.25, 17.5, 19.5, 16.125, 19.125, 21.75, 15.1875, 18.875, 21.0, 16.625, 15.1875, 17.75, 18.0, 16.375, 17.75, 16.875, 20.75, 17.75, 18.625, 16.375, 18.875, 16.875, 16.625, 18.625, 14.6875, 19.5, 17.5, 18.25, 14.6875, 18.25, 15.625, 18.0, 16.875, 16.375, 18.25, 17.25, 15.875, 16.625, 16.125, 18.0, 15.625, 16.625, 18.625, 17.25, 17.75, 17.5, 20.125, 18.0, 14.9375, 17.5, 19.125, 16.875, 19.125, 16.875, 17.25, 18.875, 15.875, 19.5, 17.25, 18.25, 18.0, 14.5, 13.1875, 21.75, 20.125, 16.875, 17.25, 19.125, 16.875, 16.625, 17.75, 19.125, 19.5, 16.125, 16.875, 17.5, 16.875, 16.375, 13.8125, 16.125, 18.875, 17.25, 14.5, 19.5, 18.875, 15.625, 16.625, 14.25, 16.625, 17.75, 16.625, 17.75, 17.75, 14.6875, 18.25, 17.75, 17.75, 15.875, 18.25, 16.625, 16.375, 16.375, 13.375, 20.125, 14.5, 15.625, 16.125, 16.875, 16.875, 18.0, 16.375, 16.375, 17.5, 20.125, 17.5, 16.875, 18.875, 16.375, 16.875, 19.5, 15.875, 16.625, 16.125, 15.625, 17.25, 17.5, 15.625, 16.875, 20.75, 14.5, 17.5, 19.5, 17.5, 16.875, 16.125, 17.25, 13.625, 16.875, 15.875, 16.375, 15.4375, 15.625, 15.4375, 15.4375, 15.875, 15.4375, 14.6875, 14.9375, 15.1875, 17.75, 14.0, 15.1875, 15.625, 14.0, 15.4375, 16.875, 15.1875, 17.75, 15.625, 16.125, 16.125, 15.875, 14.25, 16.625, 14.5, 17.25, 16.625, 15.4375, 13.375, 16.875, 14.6875, 13.8125, 13.8125, 13.0, 13.625, 15.625, 13.1875, 14.0, 14.0, 14.6875, 14.0, 13.0, 12.375, 13.375, 15.1875, 14.25, 16.375, 14.9375, 14.25, 13.8125, 16.375, 14.25, 14.0, 14.9375, 15.875, 13.1875, 13.0, 18.0, 14.5]","[0.0, 0.07859644293785095, 0.08529768139123917, 0.0908203125, 0.10950969904661179, 0.10429014265537262, 0.11877020448446274, 0.11240570992231369, 0.09395204484462738, 0.09937365353107452, 0.10321255028247833, 0.1307246834039688, 0.1211610957980156, 0.0987001582980156, 0.11543641984462738, 0.1230131983757019, 0.09031519293785095, 0.1368197798728943, 0.14826913177967072, 0.11166486889123917, 0.13900862634181976, 0.1414668709039688, 0.13328394293785095, 0.1405576467514038, 0.125, 0.12227235734462738, 0.1514008641242981, 0.1533876657485962, 0.14709050953388214, 0.1571928858757019, 0.16345635056495667, 0.13207165896892548, 0.16726158559322357, 0.16059401631355286, 0.1493130326271057, 0.13739223778247833, 0.12833377718925476, 0.15480199456214905, 0.17527613043785095, 0.15311826765537262, 0.14291487634181976, 0.13591055572032928, 0.1582368016242981, 0.12873788177967072, 0.1797885298728943, 0.1454741358757019, 0.16719423234462738, 0.1485385298728943, 0.12769396603107452, 0.14776401221752167, 0.14203932881355286, 0.14975081384181976, 0.1269868016242981, 0.15193966031074524, 0.16561153531074524, 0.1651400923728943, 0.1522427201271057, 0.12671740353107452, 0.1346309334039688, 0.1590449959039688, 0.16675646603107452, 0.15449891984462738, 0.17214439809322357, 0.18325699865818024, 0.15076103806495667, 0.15749596059322357, 0.15773168206214905, 0.158203125, 0.15200699865818024, 0.1524784415960312, 0.14234240353107452, 0.15790005028247833, 0.15951643884181976, 0.1865571141242981, 0.16951778531074524, 0.15271416306495667, 0.1905307173728943, 0.17305360734462738, 0.1708647608757019, 0.2069638967514038, 0.1797211766242981, 0.21221713721752167, 0.20447197556495667, 0.1543979048728943, 0.1689789891242981, 0.1944706290960312, 0.1786099076271057, 0.17073006927967072, 0.1894194483757019, 0.16093076765537262, 0.19187769293785095, 0.18632139265537262, 0.18042834103107452, 0.16534213721752167, 0.15217538177967072, 0.18773572146892548, 0.21935613453388214, 0.16931572556495667, 0.1904296875, 0.1886112540960312, 0.18019261956214905, 0.20763738453388214, 0.20487608015537262, 0.1816743016242981, 0.21824488043785095, 0.1758486032485962, 0.1514345407485962, 0.1983432173728943, 0.1815732717514038, 0.1749057173728943, 0.17322197556495667, 0.20844557881355286, 0.2002963423728943, 0.17712822556495667, 0.15749596059322357, 0.19575026631355286, 0.17642106115818024, 0.18918372690677643, 0.21716728806495667, 0.1874326467514038, 0.20565059781074524, 0.2246767282485962, 0.19069908559322357, 0.17500673234462738, 0.1807314157485962, 0.17322197556495667, 0.19160829484462738, 0.21507947146892548, 0.20470769703388214, 0.1757138967514038, 0.18416622281074524, 0.2276400923728943, 0.2315126657485962, 0.20184536278247833, 0.20972521603107452, 0.20783944427967072, 0.21622440218925476, 0.22636045515537262, 0.19564925134181976, 0.23885372281074524, 0.22329606115818024, 0.21366514265537262, 0.23713631927967072, 0.17844153940677643, 0.2098599076271057, 0.19891567528247833, 0.24474675953388214, 0.1863887459039688, 0.19598598778247833, 0.19383081793785095, 0.19012661278247833, 0.21080279350280762, 0.19207973778247833, 0.19066540896892548, 0.1981074959039688, 0.24956223368644714, 0.2080078125, 0.19218076765537262, 0.2081425040960312, 0.19780442118644714, 0.23285964131355286, 0.21521416306495667, 0.18719692528247833, 0.22871766984462738, 0.22582165896892548, 0.21827855706214905, 0.19157461822032928, 0.2069975733757019, 0.21029768884181976, 0.19851158559322357, 0.19507677853107452, 0.2012392282485962, 0.23474541306495667, 0.20238415896892548, 0.2149447798728943, 0.22986260056495667, 0.23077182471752167, 0.23690059781074524, 0.22871766984462738, 0.22215113043785095, 0.23403824865818024, 0.22205010056495667, 0.2265625, 0.24040274322032928, 0.22693291306495667, 0.2254849076271057, 0.22615841031074524, 0.23787716031074524, 0.18625403940677643, 0.2618197798728943, 0.2324892282485962, 0.20430360734462738, 0.22703394293785095, 0.23653016984462738, 0.22969423234462738, 0.2382475733757019, 0.23999865353107452, 0.23599137365818024, 0.21945716440677643, 0.1903623342514038, 0.22110721468925476, 0.2344086766242981, 0.21211610734462738, 0.21268858015537262, 0.24191810190677643, 0.2100956290960312, 0.2363954782485962, 0.19672682881355286, 0.21258755028247833, 0.22700026631355286, 0.22329606115818024, 0.21063442528247833, 0.2323545217514038, 0.22390221059322357, 0.21258755028247833, 0.2665678858757019, 0.25562363862991333, 0.22319504618644714, 0.22097252309322357, 0.2118467092514038, 0.2623922526836395, 0.21023033559322357, 0.22683189809322357, 0.21177935600280762, 0.21255387365818024, 0.23882004618644714, 0.22407057881355286, 0.2216123342514038, 0.2059873342514038, 0.24531923234462738, 0.23120959103107452, 0.24626211822032928, 0.2451171875, 0.20464035868644714, 0.20645877718925476, 0.2451508641242981, 0.22292564809322357, 0.22868399322032928, 0.23360048234462738, 0.20534752309322357, 0.20915274322032928, 0.25390625, 0.18632139265537262, 0.21555091440677643, 0.21332839131355286, 0.21804283559322357, 0.21598868072032928, 0.22201643884181976, 0.19356141984462738, 0.22595635056495667, 0.23905576765537262, 0.2148100733757019, 0.2254849076271057, 0.2674097418785095, 0.23464439809322357, 0.23663119971752167, 0.240234375, 0.23259024322032928, 0.23649649322032928, 0.21800915896892548, 0.24932651221752167, 0.21959185600280762, 0.20285560190677643, 0.22703394293785095, 0.22639413177967072, 0.21632543206214905, 0.19945447146892548, 0.23090651631355286, 0.25245824456214905, 0.2549164891242981, 0.23595769703388214, 0.2557246685028076, 0.21837957203388214, 0.27885910868644714, 0.23275862634181976, 0.20484240353107452, 0.25141432881355286, 0.20925377309322357, 0.2275390625, 0.25936153531074524, 0.23097386956214905, 0.22912175953388214, 0.23871901631355286, 0.18100081384181976, 0.21753771603107452, 0.18483971059322357, 0.2110385298728943, 0.21012930572032928, 0.2178744673728943, 0.26245957612991333, 0.2381802201271057, 0.24333243072032928, 0.22329606115818024, 0.23262391984462738, 0.23097386956214905, 0.24279363453388214, 0.21602235734462738, 0.2696659564971924, 0.2451845407485962, 0.2540746331214905, 0.24568966031074524, 0.22888603806495667, 0.18881331384181976, 0.2490571141242981, 0.26205548644065857, 0.22326238453388214, 0.25454607605934143, 0.22541756927967072, 0.21733567118644714, 0.23942618072032928, 0.24366918206214905, 0.24767644703388214, 0.23669853806495667, 0.25532057881355286, 0.2678811848163605, 0.23511584103107452, 0.21336206793785095, 0.28357353806495667, 0.19770339131355286, 0.2565665543079376, 0.2507071793079376, 0.27209052443504333, 0.23195043206214905, 0.27185478806495667, 0.23023302853107452, 0.1961543709039688, 0.21528151631355286, 0.2420864701271057, 0.23865166306495667, 0.2041352391242981, 0.2714170217514038, 0.25626346468925476, 0.22999730706214905, 0.2685883641242981, 0.23703528940677643, 0.2177734375, 0.20056572556495667, 0.2255859375, 0.18389682471752167, 0.21521416306495667, 0.22683189809322357, 0.2207368016242981, 0.24535290896892548, 0.24474675953388214, 0.25239089131355286, 0.19645743072032928, 0.26619747281074524, 0.23360048234462738, 0.24575699865818024, 0.24784483015537262, 0.18807247281074524, 0.26124730706214905, 0.2167295217514038, 0.24238954484462738, 0.22302666306495667, 0.2711813151836395, 0.23703528940677643, 0.24073949456214905, 0.23171471059322357, 0.25343480706214905, 0.24063846468925476, 0.2372036576271057, 0.20820985734462738, 0.25134697556495667, 0.21699891984462738, 0.2512796223163605, 0.25047144293785095, 0.2501347064971924, 0.25040408968925476, 0.25134697556495667, 0.24073949456214905, 0.2990975081920624, 0.24286098778247833, 0.25649920105934143, 0.2423221915960312, 0.25646552443504333, 0.22188173234462738, 0.2578461766242981, 0.24834994971752167, 0.23663119971752167, 0.24363550543785095, 0.30738145112991333, 0.23551993072032928, 0.2344086766242981, 0.23966190218925476, 0.2686557173728943, 0.21814385056495667, 0.31994208693504333, 0.21932247281074524, 0.2235991358757019, 0.21895204484462738, 0.27114763855934143, 0.23114223778247833, 0.25535425543785095, 0.27498653531074524, 0.2800713777542114, 0.2236664891242981, 0.2451171875, 0.2372373342514038, 0.2516500651836395, 0.2303677201271057, 0.24646416306495667, 0.2508755326271057, 0.2196592092514038, 0.2791958451271057, 0.26124730706214905, 0.2565665543079376, 0.24286098778247833, 0.25643184781074524, 0.21901939809322357, 0.23292699456214905, 0.22134293615818024, 0.22248788177967072, 0.2119814157485962, 0.23265759646892548, 0.2040005326271057, 0.2471039891242981, 0.21120689809322357, 0.2489560842514038, 0.27017107605934143, 0.26138201355934143, 0.2274717092514038, 0.2516500651836395, 0.22322872281074524, 0.2654902935028076, 0.23693425953388214, 0.21238550543785095, 0.2411772608757019, 0.27572736144065857, 0.2545797526836395, 0.28074488043785095, 0.19969019293785095, 0.2567349076271057, 0.29037579894065857, 0.2372710108757019, 0.2844827473163605, 0.27771416306495667, 0.23855064809322357, 0.21662850677967072, 0.26613011956214905, 0.21639278531074524, 0.2509092092514038, 0.21989493072032928, 0.2579808831214905, 0.24346713721752167, 0.21922144293785095, 0.25158271193504333, 0.2647157907485962, 0.1943696141242981, 0.2960331439971924, 0.26010236144065857, 0.21952451765537262, 0.2584860026836395, 0.22029903531074524, 0.20969153940677643, 0.26505252718925476, 0.25521954894065857, 0.29152074456214905, 0.23070447146892548, 0.2736058831214905, 0.2158539891242981, 0.23464439809322357, 0.24979795515537262, 0.2295258641242981, 0.23215247690677643, 0.21992860734462738, 0.24562230706214905, 0.24137930572032928, 0.23073814809322357, 0.2693291902542114, 0.23514951765537262, 0.27771416306495667, 0.22885237634181976, 0.2508418560028076, 0.2589911222457886, 0.2246430516242981, 0.2363954782485962, 0.2421875, 0.2587553858757019, 0.2843817472457886, 0.25528690218925476, 0.24302935600280762, 0.25158271193504333, 0.27734375, 0.2431640625, 0.23568831384181976, 0.20743533968925476, 0.2549164891242981, 0.2520878314971924, 0.20881600677967072, 0.24339978396892548, 0.2786233723163605, 0.26229122281074524, 0.27502021193504333, 0.23983028531074524, 0.28276535868644714, 0.24067214131355286, 0.21265490353107452, 0.2704067826271057, 0.22238685190677643, 0.24572332203388214, 0.22090516984462738, 0.23673221468925476, 0.25343480706214905, 0.26421067118644714, 0.2637055516242981, 0.24683459103107452, 0.2624932527542114, 0.2108701467514038, 0.24855199456214905, 0.23716998100280762, 0.24582435190677643, 0.24774380028247833, 0.26333513855934143, 0.21154363453388214, 0.24730603396892548, 0.23491379618644714, 0.2707098722457886, 0.18901535868644714, 0.24107623100280762, 0.23865166306495667, 0.2705414891242981, 0.2557246685028076, 0.23491379618644714, 0.28572872281074524, 0.25649920105934143, 0.25239089131355286, 0.24339978396892548, 0.2521888315677643, 0.22824622690677643, 0.24764278531074524, 0.2654229402542114, 0.2333310842514038, 0.27993670105934143, 0.25629714131355286, 0.23892106115818024, 0.24356815218925476, 0.26909348368644714, 0.19905038177967072, 0.22922278940677643, 0.2461611032485962, 0.29236260056495667, 0.24484778940677643, 0.23269127309322357, 0.2665342092514038, 0.22932381927967072, 0.24265894293785095, 0.26215651631355286, 0.30445176362991333, 0.2491244673728943, 0.22110721468925476, 0.28003770112991333, 0.22393588721752167, 0.2403354048728943, 0.20393319427967072, 0.2687903940677643, 0.22538389265537262, 0.2551858723163605, 0.25043776631355286, 0.2538388967514038, 0.24956223368644714, 0.2129916548728943, 0.24158135056495667, 0.24589170515537262, 0.23663119971752167, 0.177734375, 0.24872036278247833, 0.2725282907485962, 0.3048558831214905, 0.23999865353107452, 0.26124730706214905, 0.26636582612991333, 0.2912513315677643, 0.24245689809322357, 0.2490571141242981, 0.22326238453388214, 0.23319639265537262, 0.27680495381355286, 0.21922144293785095, 0.27885910868644714, 0.2751885652542114, 0.3047211766242981, 0.2099946141242981, 0.2587553858757019, 0.24235586822032928, 0.24481411278247833, 0.2315800040960312, 0.25171738862991333, 0.29643723368644714, 0.2541419565677643, 0.2560614347457886, 0.26410964131355286, 0.21646012365818024, 0.23188307881355286, 0.2237675040960312, 0.2687230706214905, 0.2687567472457886, 0.23690059781074524, 0.24737338721752167, 0.2801724076271057, 0.25660020112991333, 0.2802397608757019, 0.20046471059322357, 0.2626953125, 0.21875, 0.2275727391242981, 0.2197939157485962, 0.2353515625, 0.22723598778247833, 0.24959591031074524, 0.2883889973163605, 0.23615975677967072, 0.26818427443504333, 0.2842133641242981, 0.24568966031074524, 0.2708108723163605, 0.2918911576271057, 0.2168642282485962, 0.2393251657485962, 0.29721173644065857, 0.2403354048728943, 0.2584860026836395, 0.2676791548728943, 0.2764345407485962, 0.24666622281074524, 0.28774920105934143, 0.24555495381355286, 0.2629646956920624, 0.23609240353107452, 0.2674434185028076, 0.2909482717514038, 0.2916891276836395, 0.2480131983757019, 0.2912850081920624, 0.22972790896892548, 0.2391904592514038, 0.25649920105934143, 0.2687230706214905, 0.2522225081920624, 0.21723464131355286, 0.22925646603107452, 0.22986260056495667, 0.203125, 0.2793979048728943, 0.21743668615818024, 0.2976495027542114, 0.22285829484462738, 0.23609240353107452, 0.26986798644065857, 0.28842267394065857, 0.24730603396892548, 0.25424298644065857, 0.24444369971752167, 0.2609105706214905, 0.2605738043785095, 0.24585802853107452, 0.2595635652542114, 0.23312903940677643, 0.23306168615818024, 0.29626885056495667, 0.23013199865818024, 0.3054956793785095, 0.2480131983757019, 0.29926589131355286, 0.2509765625, 0.20096983015537262, 0.2471039891242981, 0.22312769293785095, 0.2275390625, 0.2577114701271057, 0.2373046875, 0.28744611144065857, 0.2947198152542114, 0.2393588423728943, 0.24245689809322357, 0.2481142282485962, 0.2761651277542114, 0.23945985734462738, 0.22912175953388214, 0.26320043206214905, 0.2516837418079376, 0.19874730706214905, 0.2990975081920624, 0.22245420515537262, 0.2480131983757019, 0.2571389973163605, 0.2480805516242981, 0.22120824456214905, 0.2707098722457886, 0.2814520597457886, 0.22686557471752167, 0.2762998342514038, 0.2634698152542114, 0.23568831384181976, 0.2743467092514038, 0.2716864347457886, 0.2879512310028076, 0.2629983723163605, 0.26111260056495667, 0.21265490353107452, 0.2821592092514038, 0.2810479402542114, 0.2579808831214905, 0.24575699865818024, 0.24966324865818024, 0.22834725677967072, 0.2520204782485962, 0.28946658968925476, 0.2596982717514038, 0.21066810190677643, 0.2265625, 0.25649920105934143, 0.25626346468925476, 0.2522561848163605, 0.20174434781074524, 0.2480131983757019, 0.22437365353107452, 0.2873450815677643, 0.23764143884181976, 0.3097386956214905, 0.2849878668785095, 0.21056707203388214, 0.2745487689971924, 0.28646954894065857, 0.23205144703388214, 0.29333916306495667, 0.2579135298728943, 0.27808457612991333, 0.2674434185028076, 0.28465113043785095, 0.29067888855934143, 0.24245689809322357, 0.27114763855934143, 0.24882139265537262, 0.24259158968925476, 0.27515488862991333, 0.2596645951271057, 0.2040678858757019, 0.21403555572032928, 0.22541756927967072, 0.22723598778247833, 0.2704404592514038, 0.23373518884181976, 0.3064385652542114, 0.2902074456214905, 0.23164735734462738, 0.3054620027542114, 0.23221983015537262, 0.24754175543785095, 0.26623114943504333, 0.25643184781074524, 0.2401333451271057, 0.2869746685028076, 0.2881532907485962, 0.27495285868644714, 0.28263065218925476, 0.24198545515537262, 0.21349675953388214, 0.27491918206214905, 0.2629310190677643, 0.26717403531074524, 0.23006466031074524, 0.26427802443504333, 0.2284819483757019, 0.2333310842514038, 0.2850552201271057, 0.2502693831920624, 0.3125336766242981, 0.2509092092514038, 0.2522225081920624, 0.2668036222457886, 0.2743803858757019, 0.2616850733757019, 0.27683863043785095, 0.1778354048728943, 0.2775121331214905, 0.25437769293785095, 0.24380387365818024, 0.2685883641242981, 0.2527613043785095, 0.2423221915960312, 0.28670528531074524, 0.2383486032485962, 0.24057112634181976, 0.24868668615818024, 0.22625942528247833, 0.2676454782485962, 0.21652747690677643, 0.2761651277542114, 0.25643184781074524, 0.306640625, 0.23272494971752167, 0.22891971468925476, 0.2595972418785095, 0.2537041902542114, 0.2721915543079376, 0.24269261956214905, 0.23952721059322357, 0.2353178858757019, 0.23104122281074524, 0.2587553858757019, 0.2897696793079376, 0.2344760298728943, 0.2403017282485962, 0.26407596468925476, 0.2685883641242981, 0.2686220407485962, 0.24686826765537262, 0.22343076765537262, 0.25939521193504333, 0.24279363453388214, 0.29296875, 0.2733701467514038, 0.25141432881355286, 0.2823275923728943, 0.2951575815677643, 0.25255927443504333, 0.2518520951271057, 0.2324555516242981, 0.30233028531074524, 0.2705078125, 0.2620218098163605, 0.23477908968925476, 0.2743130326271057, 0.3108162581920624, 0.2323881983757019, 0.22211745381355286, 0.28677263855934143, 0.2527613043785095, 0.2911503314971924, 0.26330146193504333, 0.2918911576271057, 0.19288793206214905, 0.26427802443504333, 0.23949353396892548, 0.2624932527542114, 0.2727303206920624, 0.2755926847457886, 0.24353447556495667, 0.27027207612991333, 0.2590921223163605, 0.2255859375, 0.30933457612991333, 0.25841864943504333, 0.2393925040960312, 0.23181572556495667, 0.2694302201271057, 0.28087958693504333, 0.2844490706920624, 0.26693829894065857, 0.2585196793079376, 0.2674434185028076, 0.19494207203388214, 0.22097252309322357, 0.24774380028247833, 0.2626616358757019, 0.2678138315677643, 0.27990302443504333, 0.3037446141242981, 0.2784550189971924, 0.28956761956214905, 0.2907462418079376, 0.2313442826271057, 0.2858297526836395, 0.2890625, 0.23905576765537262, 0.2822265625, 0.29832300543785095, 0.2421201467514038, 0.2713833451271057, 0.29532596468925476, 0.2589237689971924, 0.25040408968925476, 0.29859238862991333, 0.27475079894065857, 0.23090651631355286, 0.30152207612991333, 0.22040005028247833, 0.23592403531074524, 0.27097925543785095, 0.25552263855934143, 0.22228582203388214, 0.2510775923728943, 0.2362944483757019, 0.28963497281074524, 0.29445043206214905, 0.24481411278247833, 0.2776131331920624, 0.2412446141242981, 0.26916083693504333, 0.2551521956920624, 0.2741446793079376, 0.2780172526836395, 0.27808457612991333, 0.2577788233757019, 0.2500336766242981, 0.2980872690677643, 0.26895877718925476, 0.2481142282485962, 0.28687363862991333, 0.26996901631355286, 0.23615975677967072, 0.2961004972457886, 0.2763335108757019, 0.2898370027542114, 0.2480131983757019, 0.29835668206214905, 0.26037177443504333, 0.2342739701271057, 0.28764817118644714, 0.2566338777542114, 0.2970770597457886, 0.30209454894065857, 0.2471039891242981, 0.22403690218925476, 0.18696120381355286, 0.2666015625, 0.2733701467514038, 0.3232421875, 0.2792631983757019, 0.2645810842514038, 0.2841796875, 0.2441743016242981, 0.3057987689971924, 0.2678475081920624, 0.22599002718925476, 0.2608768939971924, 0.23403824865818024, 0.23669853806495667, 0.29344019293785095, 0.23653016984462738, 0.30795392394065857, 0.2937769293785095, 0.27182111144065857, 0.2811826467514038, 0.24760910868644714, 0.2694975733757019, 0.275390625, 0.2540409564971924, 0.2761651277542114, 0.28869208693504333, 0.2737068831920624, 0.2705078125, 0.2608095407485962, 0.2608768939971924, 0.30818966031074524, 0.26424434781074524, 0.2761651277542114, 0.27794989943504333, 0.2751885652542114, 0.3289331793785095, 0.2333310842514038, 0.28465113043785095, 0.28478583693504333, 0.26400861144065857, 0.2667699456214905, 0.2615840435028076, 0.26710668206214905, 0.2803071141242981, 0.2149784415960312, 0.30041083693504333, 0.2662985026836395, 0.2799703776836395, 0.3000067472457886, 0.21861529350280762, 0.2527613043785095, 0.2541756331920624, 0.2658943831920624, 0.2794315814971924, 0.30017510056495667, 0.21726831793785095, 0.24275997281074524, 0.26229122281074524, 0.26710668206214905, 0.22582165896892548, 0.27572736144065857, 0.27603045105934143, 0.32361260056495667, 0.2781182527542114, 0.2835061848163605, 0.24363550543785095, 0.2521215081214905, 0.2683526277542114, 0.2733701467514038, 0.2861328125, 0.2910829782485962, 0.23666487634181976, 0.23521685600280762, 0.2635708451271057, 0.2920595407485962, 0.2734711766242981, 0.28003770112991333, 0.25444504618644714, 0.24851831793785095, 0.22322872281074524, 0.2431303858757019, 0.23764143884181976, 0.2722925543785095, 0.2859307527542114, 0.26895877718925476, 0.26798221468925476, 0.2364291548728943, 0.22875134646892548, 0.19298894703388214, 0.2392914891242981, 0.2578125, 0.2498989701271057, 0.2696322798728943, 0.27879175543785095, 0.22231949865818024, 0.25841864943504333, 0.2648504972457886, 0.3027006983757019, 0.2618871331214905, 0.2511786222457886, 0.2737068831920624, 0.22386853396892548, 0.3000403940677643, 0.29263201355934143, 0.3341527581214905, 0.203125, 0.3112540543079376, 0.2255859375, 0.2949555516242981, 0.2585870027542114, 0.24090786278247833, 0.2667699456214905, 0.3009159564971924, 0.26427802443504333, 0.3310546875, 0.27673760056495667, 0.2840113043785095, 0.32677802443504333, 0.31640625, 0.28556033968925476, 0.251953125, 0.28862473368644714, 0.2766365706920624, 0.2697333097457886, 0.2158876657485962, 0.23949353396892548, 0.2703057527542114, 0.2869073152542114, 0.28572872281074524, 0.30717942118644714, 0.32266971468925476, 0.24653151631355286, 0.27097925543785095, 0.2647831439971924, 0.2305024266242981, 0.3024649918079376, 0.3241177201271057, 0.30030980706214905, 0.24986529350280762, 0.26508620381355286, 0.2580818831920624, 0.2615503668785095, 0.22716863453388214, 0.2607758641242981, 0.2781182527542114, 0.2862675189971924, 0.22898706793785095, 0.2981209456920624, 0.26023706793785095, 0.23764143884181976, 0.24538658559322357, 0.2295932173728943, 0.22972790896892548, 0.23754040896892548, 0.23117591440677643, 0.2599340081214905, 0.24565598368644714, 0.25720635056495667, 0.2977842092514038, 0.2693291902542114, 0.26219019293785095, 0.2916891276836395, 0.28855738043785095, 0.2039668709039688, 0.21369881927967072, 0.2918911576271057, 0.2800040543079376, 0.2235991358757019, 0.24259158968925476, 0.2537378668785095, 0.2880522608757019, 0.23481276631355286, 0.23016567528247833, 0.2645137310028076, 0.22211745381355286, 0.23191675543785095, 0.2736732065677643, 0.2940800189971924, 0.2499326467514038, 0.2274380326271057, 0.26990166306495667, 0.24292834103107452, 0.29249730706214905, 0.2752559185028076, 0.2684536576271057, 0.24178341031074524, 0.25720635056495667, 0.2746497690677643, 0.24171605706214905, 0.2868399918079376, 0.24077317118644714, 0.2411435842514038, 0.2791284918785095, 0.27279767394065857, 0.2459927201271057, 0.3145204782485962, 0.3204808831214905, 0.2549164891242981, 0.24255791306495667, 0.25919315218925476, 0.30738145112991333, 0.2754243016242981, 0.29943427443504333, 0.26421067118644714, 0.24538658559322357, 0.31499192118644714, 0.23605872690677643, 0.2932044565677643, 0.3192349076271057, 0.25235721468925476, 0.2353178858757019, 0.2503030598163605, 0.22801050543785095, 0.29357489943504333, 0.27589574456214905, 0.3173154592514038, 0.30327317118644714, 0.24771012365818024, 0.2744814157485962, 0.25932785868644714, 0.29451778531074524, 0.26414331793785095, 0.2920595407485962, 0.2538388967514038, 0.24885506927967072, 0.2791621685028076, 0.2725956439971924, 0.28461745381355286, 0.2579472064971924, 0.2530980706214905, 0.27475079894065857, 0.2627963423728943, 0.2354525923728943, 0.3233095407485962, 0.27182111144065857, 0.26619747281074524, 0.2854593098163605, 0.27687230706214905, 0.32458916306495667, 0.2647831439971924, 0.24771012365818024, 0.21619072556495667, 0.2889951467514038, 0.24936018884181976, 0.29438307881355286, 0.26811692118644714, 0.2869409918785095, 0.2060883641242981, 0.2499326467514038, 0.2561287581920624, 0.2166958451271057, 0.2978178858757019, 0.27289870381355286, 0.3183930516242981, 0.28566136956214905, 0.265625, 0.26895877718925476, 0.2665678858757019, 0.31485721468925476, 0.2762324810028076, 0.23868533968925476, 0.28175511956214905, 0.2686893939971924, 0.24636314809322357, 0.31771954894065857, 0.25545528531074524, 0.22349810600280762, 0.2686557173728943, 0.2511449456214905, 0.24558863043785095, 0.2961004972457886, 0.26596173644065857, 0.2713833451271057, 0.2997036576271057, 0.2829000651836395, 0.2526603043079376, 0.23878636956214905, 0.27603045105934143, 0.2862001657485962, 0.31896552443504333, 0.2421201467514038, 0.3172481060028076, 0.27677127718925476, 0.2843143939971924, 0.2980536222457886, 0.2608768939971924, 0.25343480706214905, 0.28859105706214905, 0.2888941168785095, 0.2860991358757019, 0.2500673532485962, 0.3007475733757019, 0.26929551362991333, 0.28845635056495667, 0.2940126657485962, 0.24441002309322357, 0.23582300543785095, 0.2697333097457886, 0.2792631983757019, 0.2986934185028076, 0.23760776221752167, 0.2401333451271057, 0.3017241358757019, 0.2804754972457886, 0.2879175543785095, 0.3005791902542114, 0.29919853806495667, 0.29650458693504333, 0.2620218098163605, 0.24632947146892548, 0.26609644293785095, 0.2859981060028076, 0.22605738043785095, 0.26498517394065857, 0.2703731060028076, 0.2755590081214905, 0.25333377718925476, 0.2705078125, 0.2687903940677643, 0.2684873342514038, 0.2685546875, 0.30529364943504333, 0.2745487689971924, 0.2957300543785095, 0.3361732065677643, 0.3202788233757019, 0.29832300543785095, 0.3046875, 0.26124730706214905, 0.23676589131355286, 0.31101831793785095, 0.26235857605934143, 0.26511988043785095, 0.2643453776836395, 0.2502020597457886, 0.2998046875, 0.2683863043785095, 0.27983567118644714, 0.2881532907485962, 0.2869073152542114, 0.28657057881355286, 0.28259697556495667, 0.23999865353107452, 0.28882676362991333, 0.2957974076271057, 0.3037782907485962, 0.2462284415960312, 0.26909348368644714, 0.28687363862991333, 0.27185478806495667, 0.2815193831920624, 0.3125, 0.32573410868644714, 0.28074488043785095, 0.2902411222457886, 0.27209052443504333, 0.30414870381355286, 0.3106479048728943, 0.29933324456214905, 0.29640355706214905, 0.30893048644065857, 0.3193359375, 0.2704067826271057, 0.2471713423728943, 0.2633688151836395, 0.251953125, 0.2677801847457886, 0.2707435190677643, 0.31792160868644714, 0.2586543560028076, 0.27771416306495667, 0.28980332612991333, 0.31313982605934143, 0.3512931168079376, 0.2746161222457886, 0.29822197556495667]","[10.875, 9.5625, 9.3125, 9.375, 9.25, 9.3125, 9.375, 9.4375, 9.5, 9.625, 9.625, 9.5, 9.375, 9.4375, 9.625, 9.75, 9.625, 9.375, 9.8125, 9.5625, 9.375, 9.4375, 9.5, 9.5, 9.5625, 9.4375, 9.625, 9.5625, 9.625, 9.625, 9.5, 9.5625, 9.625, 9.5625, 9.625, 9.625, 9.625, 9.8125, 9.5625, 9.75, 9.6875, 9.5625, 9.6875, 9.625, 9.5625, 9.5625, 9.5625, 9.75, 9.75, 9.875, 9.875, 9.75, 9.8125, 9.75, 9.9375, 10.0, 10.0, 9.8125, 9.9375, 10.0, 9.75, 10.0, 10.3125, 10.1875, 13.125, 11.3125, 10.4375, 11.375, 11.0625, 10.0625, 10.375, 10.3125, 9.8125, 9.9375, 9.75, 9.8125, 9.875, 9.8125, 9.75, 9.8125, 9.75, 9.8125, 10.0, 9.9375, 9.75, 9.6875, 9.75, 9.6875, 9.875, 9.875, 9.8125, 9.75, 9.75, 9.75, 9.8125, 9.75, 9.875, 9.8125, 9.625, 9.625, 9.75, 9.8125, 9.8125, 10.0625, 9.875, 9.75, 9.625, 9.9375, 10.0, 9.9375, 9.8125, 9.9375, 9.8125, 9.75, 10.0, 9.8125, 9.9375, 9.9375, 10.125, 10.0, 10.0, 10.0625, 9.9375, 10.125, 10.0625, 10.125, 10.0, 9.8125, 10.0, 10.1875, 10.0625, 10.3125, 10.3125, 10.25, 10.25, 10.375, 10.25, 10.375, 10.1875, 10.625, 10.4375, 10.25, 10.5, 10.0625, 10.25, 10.25, 10.25, 10.125, 10.0625, 10.0625, 10.125, 10.1875, 10.1875, 10.1875, 10.1875, 10.25, 10.125, 9.9375, 10.0625, 10.125, 10.3125, 10.625, 10.25, 10.5, 10.125, 10.0, 9.9375, 10.0, 10.125, 10.0, 10.0625, 10.125, 10.1875, 10.125, 10.25, 10.1875, 10.25, 10.25, 10.1875, 10.125, 10.25, 10.1875, 10.1875, 10.25, 10.25, 10.375, 10.375, 10.1875, 10.0, 10.3125, 10.25, 10.125, 10.125, 10.25, 10.25, 10.3125, 10.4375, 10.1875, 10.3125, 10.0, 10.1875, 10.375, 10.125, 10.4375, 10.25, 10.0, 10.25, 10.1875, 10.1875, 10.3125, 10.25, 10.3125, 10.3125, 10.125, 10.0625, 10.0625, 10.125, 10.0625, 10.0625, 10.125, 10.375, 10.5, 10.5625, 10.625, 10.125, 10.125, 10.5, 10.3125, 10.25, 10.4375, 10.5, 10.6875, 10.6875, 10.375, 10.1875, 10.5, 10.3125, 10.625, 10.3125, 10.1875, 10.6875, 10.6875, 10.3125, 10.3125, 10.4375, 10.375, 10.5, 10.375, 10.1875, 10.375, 10.25, 10.1875, 10.25, 10.5625, 10.1875, 10.375, 10.375, 10.3125, 10.375, 10.3125, 10.375, 10.375, 10.1875, 10.6875, 10.3125, 10.25, 10.3125, 10.125, 10.1875, 10.25, 10.4375, 10.25, 10.1875, 10.5, 10.5625, 10.0625, 10.5, 10.3125, 10.375, 10.75, 10.3125, 10.375, 10.1875, 10.25, 10.375, 10.3125, 10.4375, 10.3125, 10.1875, 10.4375, 10.25, 10.125, 10.375, 10.4375, 10.3125, 10.5625, 10.5, 10.5, 10.4375, 10.4375, 10.375, 10.4375, 10.375, 10.375, 10.4375, 10.375, 10.25, 10.4375, 10.3125, 10.25, 10.3125, 10.5625, 10.1875, 10.25, 10.375, 10.1875, 10.375, 10.25, 10.25, 10.5625, 10.25, 10.3125, 10.125, 10.1875, 10.1875, 10.125, 10.0625, 10.25, 10.375, 10.125, 10.1875, 10.25, 10.125, 10.4375, 10.5, 10.375, 10.25, 10.25, 10.0625, 9.875, 9.875, 9.875, 9.9375, 9.75, 10.0625, 9.8125, 9.9375, 10.0, 10.0625, 10.0, 9.9375, 10.0625, 10.125, 10.0625, 10.0625, 10.3125, 10.0625, 10.0625, 10.0, 10.4375, 10.6875, 10.1875, 10.1875, 10.4375, 10.3125, 10.125, 10.0625, 10.1875, 10.125, 10.0, 10.125, 10.25, 10.1875, 10.375, 10.125, 10.5625, 10.1875, 10.4375, 10.1875, 10.3125, 10.4375, 10.8125, 10.9375, 10.25, 10.4375, 10.5625, 10.3125, 10.625, 10.25, 10.1875, 10.125, 10.3125, 10.4375, 10.625, 10.5625, 11.0, 10.5, 10.9375, 10.25, 10.375, 10.5625, 10.8125, 11.125, 10.875, 10.9375, 11.125, 11.125, 10.8125, 10.5625, 11.0, 10.875, 11.0625, 10.75, 10.625, 10.6875, 10.75, 10.8125, 10.5625, 11.125, 11.0625, 11.6875, 11.375, 11.6875, 10.9375, 11.375, 11.5625, 11.1875, 11.75, 11.5625, 11.4375, 11.3125, 10.875, 11.875, 10.625, 10.5, 12.3125, 12.8125, 11.8125, 12.3125, 12.0, 11.75, 12.375, 11.4375, 12.25, 11.8125, 11.625, 12.125, 11.875, 11.5625, 11.8125, 11.3125, 11.0, 11.3125, 10.9375, 10.9375, 11.5625, 11.3125, 11.5625, 11.375, 11.5, 10.9375, 11.125, 11.3125, 11.3125, 11.4375, 10.9375, 11.25, 10.375, 10.625, 11.3125, 10.8125, 11.1875, 11.125, 10.9375, 11.125, 10.875, 11.3125, 10.875, 11.375, 11.375, 11.25, 10.875, 10.625, 11.0, 10.9375, 11.125, 10.625, 10.875, 11.0625, 10.625, 11.4375, 11.25, 10.625, 11.3125, 11.0, 11.125, 11.0625, 10.875, 11.0, 10.5, 10.9375, 11.25, 11.125, 11.125, 11.0, 11.5, 10.9375, 11.0, 11.0, 10.875, 11.25, 11.25, 10.9375, 10.8125, 10.75, 10.5625, 10.4375, 10.75, 10.4375, 10.4375, 10.5, 11.3125, 11.1875, 11.25, 11.5, 11.125, 10.75, 10.4375, 10.5, 10.625, 10.8125, 10.625, 10.625, 10.75, 10.875, 10.25, 10.4375, 10.75, 10.25, 10.9375, 10.875, 10.625, 10.5625, 10.4375, 10.8125, 10.6875, 11.0, 11.4375, 11.0625, 10.5625, 10.8125, 11.125, 10.875, 10.75, 10.375, 10.8125, 10.75, 11.25, 11.125, 11.3125, 11.125, 10.8125, 10.9375, 10.9375, 11.0625, 10.6875, 10.875, 10.8125, 11.0, 10.8125, 10.8125, 10.6875, 11.0625, 10.5, 10.5625, 10.5625, 10.5625, 10.5625, 10.5, 10.8125, 10.875, 10.625, 10.3125, 10.6875, 10.5625, 10.625, 10.5625, 10.875, 10.8125, 10.6875, 10.5625, 10.5625, 10.5, 10.5, 10.625, 10.9375, 10.9375, 10.875, 10.8125, 10.9375, 10.5, 10.6875, 10.5, 11.125, 10.75, 10.8125, 10.75, 10.75, 10.4375, 10.5625, 10.9375, 10.6875, 10.625, 11.125, 10.5, 10.8125, 11.4375, 10.4375, 10.75, 10.9375, 10.8125, 10.5625, 10.75, 10.9375, 11.0, 11.0625, 10.6875, 11.0625, 11.0625, 11.8125, 11.5, 11.5625, 11.125, 11.5, 10.9375, 11.375, 11.1875, 11.375, 11.25, 10.6875, 11.375, 11.0625, 10.9375, 11.5, 10.625, 11.5, 11.5625, 11.4375, 11.75, 11.6875, 11.5625, 11.375, 11.1875, 11.6875, 11.4375, 11.5625, 11.125, 11.0625, 11.5625, 12.0, 10.875, 11.5, 11.1875, 12.375, 11.375, 11.0, 11.8125, 10.75, 11.0625, 11.25, 11.1875, 11.375, 11.625, 11.6875, 11.0, 11.3125, 10.8125, 10.5625, 10.9375, 11.9375, 12.25, 11.5, 12.1875, 11.5, 11.625, 11.8125, 11.8125, 10.9375, 11.625, 11.5, 11.375, 11.25, 11.3125, 11.1875, 11.75, 11.75, 11.9375, 12.0, 11.3125, 11.125, 11.1875, 11.1875, 10.8125, 11.0625, 10.9375, 10.9375, 11.1875, 11.1875, 11.375, 10.625, 11.0, 11.3125, 10.8125, 11.25, 10.8125, 10.9375, 10.75, 11.375, 11.0, 11.3125, 11.6875, 11.0, 11.4375, 11.5, 11.0625, 11.125, 11.125, 11.9375, 11.3125, 11.375, 11.5625, 11.1875, 11.5, 11.25, 11.25, 10.875, 10.6875, 10.4375, 11.0, 10.9375, 10.875, 10.8125, 10.5625, 10.9375, 11.5, 10.9375, 11.125, 10.875, 10.875, 11.1875, 11.5, 11.375, 11.8125, 11.5, 11.1875, 11.6875, 11.0625, 11.125, 11.625, 11.4375, 11.3125, 11.25, 11.6875, 11.0, 11.375, 11.3125, 11.0625, 11.375, 11.0625, 10.75, 11.125, 10.9375, 10.875, 11.4375, 10.875, 11.125, 11.0625, 10.9375, 11.0, 10.9375, 11.0, 11.5, 11.0625, 11.4375, 11.0, 10.75, 11.3125, 10.75, 10.9375, 10.875, 11.125, 10.75, 10.9375, 10.8125, 10.4375, 11.0, 11.3125, 11.8125, 11.5, 11.125, 11.4375, 11.625, 11.0, 11.0, 11.25, 11.625, 11.25, 10.8125, 11.75, 11.4375, 11.4375, 11.6875, 11.3125, 12.375, 11.25, 11.5, 10.875, 10.9375, 12.125, 12.4375, 12.0, 11.4375, 11.75, 11.5, 11.6875, 10.9375, 12.0625, 12.6875, 12.5, 11.9375, 11.75, 11.75, 10.875, 11.75, 11.25, 12.3125, 11.8125, 11.75, 11.6875, 12.0625, 11.5, 11.25, 12.0, 11.375, 11.375, 11.125, 11.75, 11.75, 12.0625, 11.5625, 11.9375, 11.5, 10.4375, 11.125, 11.75, 11.75, 11.9375, 12.1875, 12.125, 11.4375, 11.375, 11.3125, 11.0625, 12.0, 12.625, 11.625, 11.4375, 12.0, 10.875, 11.625, 11.5, 11.625, 11.75, 11.75, 11.5625, 11.3125, 12.0625, 11.3125, 11.75, 11.8125, 11.1875, 10.8125, 11.1875, 10.875, 11.5625, 11.625, 12.0, 12.5, 10.75, 11.1875, 11.25, 11.625, 11.625, 11.6875, 11.5, 11.9375, 12.5625, 12.375, 11.4375, 11.75, 11.9375, 11.25, 11.75, 11.75, 12.0, 11.4375, 11.75, 11.8125, 11.8125, 12.1875, 11.5625, 12.875, 12.375, 11.5625, 11.3125, 11.3125, 11.3125, 12.25, 12.625, 12.0625, 11.5, 11.8125, 11.25, 11.75, 11.4375, 11.5, 11.4375, 11.3125, 11.1875, 11.5625, 11.0625, 11.4375, 11.4375, 11.8125, 11.6875, 11.5, 11.5625, 11.625, 12.0625, 11.8125, 11.6875, 11.5, 11.6875, 11.3125, 11.0, 11.75, 11.5, 11.875, 11.875, 11.5625, 12.0625, 11.75, 12.0625, 11.875, 11.9375, 12.3125, 12.0, 11.8125, 12.1875, 11.5625, 12.0625, 11.5, 11.1875, 11.8125, 11.375, 11.75, 11.75, 11.75, 12.5625, 12.0625, 11.625, 11.5, 11.4375, 11.25, 11.375, 11.6875, 12.0, 12.125, 11.75, 11.5, 11.5625, 11.5, 11.9375, 11.4375, 11.6875, 11.5625, 11.375, 11.125, 11.625, 11.5625, 11.625, 11.5625, 11.1875, 11.5, 11.125, 11.25, 10.6875, 11.4375, 11.625, 11.3125, 11.1875, 10.8125, 10.8125, 10.9375, 11.3125, 11.0625, 11.1875, 11.25, 11.1875, 10.9375, 11.375, 11.625, 11.0625, 10.875, 11.0, 11.1875, 10.9375, 11.6875, 11.375, 11.75, 11.0625, 12.0, 11.0625, 11.875, 11.4375, 11.1875, 11.4375, 11.875, 11.75, 12.6875, 13.3125, 13.75, 13.4375, 12.875, 12.3125, 11.125, 12.25, 11.625, 11.5, 11.5, 11.125, 11.0625, 11.8125, 11.3125, 11.5625, 11.8125, 11.6875, 11.3125, 11.5, 11.5625, 12.0, 11.9375, 11.0625, 11.0625, 11.5625, 11.1875, 11.4375, 10.9375, 11.5, 11.25, 11.1875, 10.8125, 12.625, 12.125, 12.0, 12.1875, 11.1875, 11.375, 11.375, 10.8125, 11.375, 11.1875, 11.625, 11.8125, 11.3125, 11.5, 11.625, 11.125, 10.375, 10.375, 11.3125, 11.1875, 10.625, 10.6875, 10.8125, 11.25, 10.8125, 10.9375, 10.9375, 10.875, 11.0, 11.6875, 11.625, 11.4375, 11.4375, 11.1875, 11.0625, 11.5625, 11.0, 11.875, 12.0, 11.875, 11.5625, 11.375, 12.0625, 11.5625, 11.0625, 11.625, 12.0, 11.5, 12.25, 11.875, 11.6875, 11.25, 11.75, 11.8125, 11.4375, 11.9375, 11.8125, 11.4375, 11.375, 11.3125, 11.8125, 11.875, 11.3125, 11.75, 11.3125, 11.0, 11.5, 12.3125, 11.9375, 11.875, 11.5625, 12.25, 11.4375, 11.125, 11.3125, 11.75, 11.0625, 11.3125, 11.6875, 11.875, 11.4375, 11.0, 11.625, 11.375, 11.3125, 10.9375, 11.75, 11.375, 12.5625, 12.125, 11.6875, 12.0, 11.375, 11.125, 11.25, 11.8125, 11.625, 11.375, 11.375, 11.75, 11.125, 11.5, 11.5625, 11.25, 11.875, 11.8125, 11.5625, 11.1875, 11.5, 11.4375, 11.375, 11.625, 11.375, 11.0625, 11.3125, 11.1875, 11.1875, 12.0625, 11.3125, 11.75, 11.5625, 10.875, 10.9375, 11.25, 11.75, 12.0625, 12.25, 11.6875, 11.5, 11.125, 11.5, 11.4375, 11.5625, 11.4375, 11.6875, 11.3125, 11.4375, 11.6875, 11.0625, 11.0, 11.0, 11.125, 11.4375, 11.0625, 11.5, 11.0625, 11.3125, 11.375, 11.3125, 11.125, 11.3125, 11.375, 10.6875, 10.375, 10.6875, 10.5625, 10.4375, 10.625, 10.6875, 10.75, 10.9375, 11.0625, 11.0625, 11.0, 10.875, 10.9375, 11.0625, 11.25, 11.3125, 11.0625, 11.3125, 11.1875, 11.125, 11.0, 11.25, 11.125, 11.375, 12.0625, 11.9375, 12.0625, 11.9375, 11.5, 11.1875, 11.875, 11.5625, 11.4375, 11.5625, 11.5, 12.0, 11.4375, 11.6875, 11.8125, 11.625, 11.5, 11.625, 11.4375, 11.625, 11.75, 12.1875, 11.4375, 11.5, 11.625, 11.375, 11.625, 12.375, 12.6875, 12.625, 12.125, 11.6875, 12.25, 12.0625, 12.1875, 12.1875, 11.9375, 12.125, 12.0625, 11.6875, 11.6875, 12.875, 12.25, 12.1875, 12.4375, 11.75, 12.125, 12.5, 12.625, 12.875, 12.0625, 12.125]","[52992.0, 14272.0, 11072.0, 11840.0, 10432.0, 11072.0, 11840.0, 12544.0, 13376.0, 15168.0, 15168.0, 13376.0, 11840.0, 12544.0, 15168.0, 17152.0, 15168.0, 11840.0, 18304.0, 14272.0, 11840.0, 12544.0, 13376.0, 13376.0, 14272.0, 12544.0, 15168.0, 14272.0, 15168.0, 15168.0, 13376.0, 14272.0, 15168.0, 14272.0, 15168.0, 15168.0, 15168.0, 18304.0, 14272.0, 17152.0, 16128.0, 14272.0, 16128.0, 15168.0, 14272.0, 14272.0, 14272.0, 17152.0, 17152.0, 19456.0, 19456.0, 17152.0, 18304.0, 17152.0, 20736.0, 22016.0, 22016.0, 18304.0, 20736.0, 22016.0, 17152.0, 22016.0, 30208.0, 26624.0, 501760.0, 81920.0, 34304.0, 87040.0, 63744.0, 23424.0, 32128.0, 30208.0, 18304.0, 20736.0, 17152.0, 18304.0, 19456.0, 18304.0, 17152.0, 18304.0, 17152.0, 18304.0, 22016.0, 20736.0, 17152.0, 16128.0, 17152.0, 16128.0, 19456.0, 19456.0, 18304.0, 17152.0, 17152.0, 17152.0, 18304.0, 17152.0, 19456.0, 18304.0, 15168.0, 15168.0, 17152.0, 18304.0, 18304.0, 23424.0, 19456.0, 17152.0, 15168.0, 20736.0, 22016.0, 20736.0, 18304.0, 20736.0, 18304.0, 17152.0, 22016.0, 18304.0, 20736.0, 20736.0, 24960.0, 22016.0, 22016.0, 23424.0, 20736.0, 24960.0, 23424.0, 24960.0, 22016.0, 18304.0, 22016.0, 26624.0, 23424.0, 30208.0, 30208.0, 28288.0, 28288.0, 32128.0, 28288.0, 32128.0, 26624.0, 41216.0, 34304.0, 28288.0, 36352.0, 23424.0, 28288.0, 28288.0, 28288.0, 24960.0, 23424.0, 23424.0, 24960.0, 26624.0, 26624.0, 26624.0, 26624.0, 28288.0, 24960.0, 20736.0, 23424.0, 24960.0, 30208.0, 41216.0, 28288.0, 36352.0, 24960.0, 22016.0, 20736.0, 22016.0, 24960.0, 22016.0, 23424.0, 24960.0, 26624.0, 24960.0, 28288.0, 26624.0, 28288.0, 28288.0, 26624.0, 24960.0, 28288.0, 26624.0, 26624.0, 28288.0, 28288.0, 32128.0, 32128.0, 26624.0, 22016.0, 30208.0, 28288.0, 24960.0, 24960.0, 28288.0, 28288.0, 30208.0, 34304.0, 26624.0, 30208.0, 22016.0, 26624.0, 32128.0, 24960.0, 34304.0, 28288.0, 22016.0, 28288.0, 26624.0, 26624.0, 30208.0, 28288.0, 30208.0, 30208.0, 24960.0, 23424.0, 23424.0, 24960.0, 23424.0, 23424.0, 24960.0, 32128.0, 36352.0, 38656.0, 41216.0, 24960.0, 24960.0, 36352.0, 30208.0, 28288.0, 34304.0, 36352.0, 43776.0, 43776.0, 32128.0, 26624.0, 36352.0, 30208.0, 41216.0, 30208.0, 26624.0, 43776.0, 43776.0, 30208.0, 30208.0, 34304.0, 32128.0, 36352.0, 32128.0, 26624.0, 32128.0, 28288.0, 26624.0, 28288.0, 38656.0, 26624.0, 32128.0, 32128.0, 30208.0, 32128.0, 30208.0, 32128.0, 32128.0, 26624.0, 43776.0, 30208.0, 28288.0, 30208.0, 24960.0, 26624.0, 28288.0, 34304.0, 28288.0, 26624.0, 36352.0, 38656.0, 23424.0, 36352.0, 30208.0, 32128.0, 46592.0, 30208.0, 32128.0, 26624.0, 28288.0, 32128.0, 30208.0, 34304.0, 30208.0, 26624.0, 34304.0, 28288.0, 24960.0, 32128.0, 34304.0, 30208.0, 38656.0, 36352.0, 36352.0, 34304.0, 34304.0, 32128.0, 34304.0, 32128.0, 32128.0, 34304.0, 32128.0, 28288.0, 34304.0, 30208.0, 28288.0, 30208.0, 38656.0, 26624.0, 28288.0, 32128.0, 26624.0, 32128.0, 28288.0, 28288.0, 38656.0, 28288.0, 30208.0, 24960.0, 26624.0, 26624.0, 24960.0, 23424.0, 28288.0, 32128.0, 24960.0, 26624.0, 28288.0, 24960.0, 34304.0, 36352.0, 32128.0, 28288.0, 28288.0, 23424.0, 19456.0, 19456.0, 19456.0, 20736.0, 17152.0, 23424.0, 18304.0, 20736.0, 22016.0, 23424.0, 22016.0, 20736.0, 23424.0, 24960.0, 23424.0, 23424.0, 30208.0, 23424.0, 23424.0, 22016.0, 34304.0, 43776.0, 26624.0, 26624.0, 34304.0, 30208.0, 24960.0, 23424.0, 26624.0, 24960.0, 22016.0, 24960.0, 28288.0, 26624.0, 32128.0, 24960.0, 38656.0, 26624.0, 34304.0, 26624.0, 30208.0, 34304.0, 49664.0, 56320.0, 28288.0, 34304.0, 38656.0, 30208.0, 41216.0, 28288.0, 26624.0, 24960.0, 30208.0, 34304.0, 41216.0, 38656.0, 59904.0, 36352.0, 56320.0, 28288.0, 32128.0, 38656.0, 49664.0, 68096.0, 52992.0, 56320.0, 68096.0, 68096.0, 49664.0, 38656.0, 59904.0, 52992.0, 63744.0, 46592.0, 41216.0, 43776.0, 46592.0, 49664.0, 38656.0, 68096.0, 63744.0, 119296.0, 87040.0, 119296.0, 56320.0, 87040.0, 105472.0, 72192.0, 126976.0, 105472.0, 92672.0, 81920.0, 52992.0, 144384.0, 41216.0, 36352.0, 223232.0, 366592.0, 135168.0, 223232.0, 162816.0, 126976.0, 237568.0, 92672.0, 209920.0, 135168.0, 112128.0, 184320.0, 144384.0, 105472.0, 135168.0, 81920.0, 59904.0, 81920.0, 56320.0, 56320.0, 105472.0, 81920.0, 105472.0, 87040.0, 98816.0, 56320.0, 68096.0, 81920.0, 81920.0, 92672.0, 56320.0, 76800.0, 32128.0, 41216.0, 81920.0, 49664.0, 72192.0, 68096.0, 56320.0, 68096.0, 52992.0, 81920.0, 52992.0, 87040.0, 87040.0, 76800.0, 52992.0, 41216.0, 59904.0, 56320.0, 68096.0, 41216.0, 52992.0, 63744.0, 41216.0, 92672.0, 76800.0, 41216.0, 81920.0, 59904.0, 68096.0, 63744.0, 52992.0, 59904.0, 36352.0, 56320.0, 76800.0, 68096.0, 68096.0, 59904.0, 98816.0, 56320.0, 59904.0, 59904.0, 52992.0, 76800.0, 76800.0, 56320.0, 49664.0, 46592.0, 38656.0, 34304.0, 46592.0, 34304.0, 34304.0, 36352.0, 81920.0, 72192.0, 76800.0, 98816.0, 68096.0, 46592.0, 34304.0, 36352.0, 41216.0, 49664.0, 41216.0, 41216.0, 46592.0, 52992.0, 28288.0, 34304.0, 46592.0, 28288.0, 56320.0, 52992.0, 41216.0, 38656.0, 34304.0, 49664.0, 43776.0, 59904.0, 92672.0, 63744.0, 38656.0, 49664.0, 68096.0, 52992.0, 46592.0, 32128.0, 49664.0, 46592.0, 76800.0, 68096.0, 81920.0, 68096.0, 49664.0, 56320.0, 56320.0, 63744.0, 43776.0, 52992.0, 49664.0, 59904.0, 49664.0, 49664.0, 43776.0, 63744.0, 36352.0, 38656.0, 38656.0, 38656.0, 38656.0, 36352.0, 49664.0, 52992.0, 41216.0, 30208.0, 43776.0, 38656.0, 41216.0, 38656.0, 52992.0, 49664.0, 43776.0, 38656.0, 38656.0, 36352.0, 36352.0, 41216.0, 56320.0, 56320.0, 52992.0, 49664.0, 56320.0, 36352.0, 43776.0, 36352.0, 68096.0, 46592.0, 49664.0, 46592.0, 46592.0, 34304.0, 38656.0, 56320.0, 43776.0, 41216.0, 68096.0, 36352.0, 49664.0, 92672.0, 34304.0, 46592.0, 56320.0, 49664.0, 38656.0, 46592.0, 56320.0, 59904.0, 63744.0, 43776.0, 63744.0, 63744.0, 135168.0, 98816.0, 105472.0, 68096.0, 98816.0, 56320.0, 87040.0, 72192.0, 87040.0, 76800.0, 43776.0, 87040.0, 63744.0, 56320.0, 98816.0, 41216.0, 98816.0, 105472.0, 92672.0, 126976.0, 119296.0, 105472.0, 87040.0, 72192.0, 119296.0, 92672.0, 105472.0, 68096.0, 63744.0, 105472.0, 162816.0, 52992.0, 98816.0, 72192.0, 237568.0, 87040.0, 59904.0, 135168.0, 46592.0, 63744.0, 76800.0, 72192.0, 87040.0, 112128.0, 119296.0, 59904.0, 81920.0, 49664.0, 38656.0, 56320.0, 153600.0, 209920.0, 98816.0, 196608.0, 98816.0, 112128.0, 135168.0, 135168.0, 56320.0, 112128.0, 98816.0, 87040.0, 76800.0, 81920.0, 72192.0, 126976.0, 126976.0, 153600.0, 162816.0, 81920.0, 68096.0, 72192.0, 72192.0, 49664.0, 63744.0, 56320.0, 56320.0, 72192.0, 72192.0, 87040.0, 41216.0, 59904.0, 81920.0, 49664.0, 76800.0, 49664.0, 56320.0, 46592.0, 87040.0, 59904.0, 81920.0, 119296.0, 59904.0, 92672.0, 98816.0, 63744.0, 68096.0, 68096.0, 153600.0, 81920.0, 87040.0, 105472.0, 72192.0, 98816.0, 76800.0, 76800.0, 52992.0, 43776.0, 34304.0, 59904.0, 56320.0, 52992.0, 49664.0, 38656.0, 56320.0, 98816.0, 56320.0, 68096.0, 52992.0, 52992.0, 72192.0, 98816.0, 87040.0, 135168.0, 98816.0, 72192.0, 119296.0, 63744.0, 68096.0, 112128.0, 92672.0, 81920.0, 76800.0, 119296.0, 59904.0, 87040.0, 81920.0, 63744.0, 87040.0, 63744.0, 46592.0, 68096.0, 56320.0, 52992.0, 92672.0, 52992.0, 68096.0, 63744.0, 56320.0, 59904.0, 56320.0, 59904.0, 98816.0, 63744.0, 92672.0, 59904.0, 46592.0, 81920.0, 46592.0, 56320.0, 52992.0, 68096.0, 46592.0, 56320.0, 49664.0, 34304.0, 59904.0, 81920.0, 135168.0, 98816.0, 68096.0, 92672.0, 112128.0, 59904.0, 59904.0, 76800.0, 112128.0, 76800.0, 49664.0, 126976.0, 92672.0, 92672.0, 119296.0, 81920.0, 237568.0, 76800.0, 98816.0, 52992.0, 56320.0, 184320.0, 252928.0, 162816.0, 92672.0, 126976.0, 98816.0, 119296.0, 56320.0, 174080.0, 323584.0, 268288.0, 153600.0, 126976.0, 126976.0, 52992.0, 126976.0, 76800.0, 223232.0, 135168.0, 126976.0, 119296.0, 174080.0, 98816.0, 76800.0, 162816.0, 87040.0, 87040.0, 68096.0, 126976.0, 126976.0, 174080.0, 105472.0, 153600.0, 98816.0, 34304.0, 68096.0, 126976.0, 126976.0, 153600.0, 196608.0, 184320.0, 92672.0, 87040.0, 81920.0, 63744.0, 162816.0, 305152.0, 112128.0, 92672.0, 162816.0, 52992.0, 112128.0, 98816.0, 112128.0, 126976.0, 126976.0, 105472.0, 81920.0, 174080.0, 81920.0, 126976.0, 135168.0, 72192.0, 49664.0, 72192.0, 52992.0, 105472.0, 112128.0, 162816.0, 268288.0, 46592.0, 72192.0, 76800.0, 112128.0, 112128.0, 119296.0, 98816.0, 153600.0, 286720.0, 237568.0, 92672.0, 126976.0, 153600.0, 76800.0, 126976.0, 126976.0, 162816.0, 92672.0, 126976.0, 135168.0, 135168.0, 196608.0, 105472.0, 391168.0, 237568.0, 105472.0, 81920.0, 81920.0, 81920.0, 209920.0, 305152.0, 174080.0, 98816.0, 135168.0, 76800.0, 126976.0, 92672.0, 98816.0, 92672.0, 81920.0, 72192.0, 105472.0, 63744.0, 92672.0, 92672.0, 135168.0, 119296.0, 98816.0, 105472.0, 112128.0, 174080.0, 135168.0, 119296.0, 98816.0, 119296.0, 81920.0, 59904.0, 126976.0, 98816.0, 144384.0, 144384.0, 105472.0, 174080.0, 126976.0, 174080.0, 144384.0, 153600.0, 223232.0, 162816.0, 135168.0, 196608.0, 105472.0, 174080.0, 98816.0, 72192.0, 135168.0, 87040.0, 126976.0, 126976.0, 126976.0, 286720.0, 174080.0, 112128.0, 98816.0, 92672.0, 76800.0, 87040.0, 119296.0, 162816.0, 184320.0, 126976.0, 98816.0, 105472.0, 98816.0, 153600.0, 92672.0, 119296.0, 105472.0, 87040.0, 68096.0, 112128.0, 105472.0, 112128.0, 105472.0, 72192.0, 98816.0, 68096.0, 76800.0, 43776.0, 92672.0, 112128.0, 81920.0, 72192.0, 49664.0, 49664.0, 56320.0, 81920.0, 63744.0, 72192.0, 76800.0, 72192.0, 56320.0, 87040.0, 112128.0, 63744.0, 52992.0, 59904.0, 72192.0, 56320.0, 119296.0, 87040.0, 126976.0, 63744.0, 162816.0, 63744.0, 144384.0, 92672.0, 72192.0, 92672.0, 144384.0, 126976.0, 323584.0, 606208.0, 937984.0, 688128.0, 391168.0, 223232.0, 68096.0, 209920.0, 112128.0, 98816.0, 98816.0, 68096.0, 63744.0, 135168.0, 81920.0, 105472.0, 135168.0, 119296.0, 81920.0, 98816.0, 105472.0, 162816.0, 153600.0, 63744.0, 63744.0, 105472.0, 72192.0, 92672.0, 56320.0, 98816.0, 76800.0, 72192.0, 49664.0, 305152.0, 184320.0, 162816.0, 196608.0, 72192.0, 87040.0, 87040.0, 49664.0, 87040.0, 72192.0, 112128.0, 135168.0, 81920.0, 98816.0, 112128.0, 68096.0, 32128.0, 32128.0, 81920.0, 72192.0, 41216.0, 43776.0, 49664.0, 76800.0, 49664.0, 56320.0, 56320.0, 52992.0, 59904.0, 119296.0, 112128.0, 92672.0, 92672.0, 72192.0, 63744.0, 105472.0, 59904.0, 144384.0, 162816.0, 144384.0, 105472.0, 87040.0, 174080.0, 105472.0, 63744.0, 112128.0, 162816.0, 98816.0, 209920.0, 144384.0, 119296.0, 76800.0, 126976.0, 135168.0, 92672.0, 153600.0, 135168.0, 92672.0, 87040.0, 81920.0, 135168.0, 144384.0, 81920.0, 126976.0, 81920.0, 59904.0, 98816.0, 223232.0, 153600.0, 144384.0, 105472.0, 209920.0, 92672.0, 68096.0, 81920.0, 126976.0, 63744.0, 81920.0, 119296.0, 144384.0, 92672.0, 59904.0, 112128.0, 87040.0, 81920.0, 56320.0, 126976.0, 87040.0, 286720.0, 184320.0, 119296.0, 162816.0, 87040.0, 68096.0, 76800.0, 135168.0, 112128.0, 87040.0, 87040.0, 126976.0, 68096.0, 98816.0, 105472.0, 76800.0, 144384.0, 135168.0, 105472.0, 72192.0, 98816.0, 92672.0, 87040.0, 112128.0, 87040.0, 63744.0, 81920.0, 72192.0, 72192.0, 174080.0, 81920.0, 126976.0, 105472.0, 52992.0, 56320.0, 76800.0, 126976.0, 174080.0, 209920.0, 119296.0, 98816.0, 68096.0, 98816.0, 92672.0, 105472.0, 92672.0, 119296.0, 81920.0, 92672.0, 119296.0, 63744.0, 59904.0, 59904.0, 68096.0, 92672.0, 63744.0, 98816.0, 63744.0, 81920.0, 87040.0, 81920.0, 68096.0, 81920.0, 87040.0, 43776.0, 32128.0, 43776.0, 38656.0, 34304.0, 41216.0, 43776.0, 46592.0, 56320.0, 63744.0, 63744.0, 59904.0, 52992.0, 56320.0, 63744.0, 76800.0, 81920.0, 63744.0, 81920.0, 72192.0, 68096.0, 59904.0, 76800.0, 68096.0, 87040.0, 174080.0, 153600.0, 174080.0, 153600.0, 98816.0, 72192.0, 144384.0, 105472.0, 92672.0, 105472.0, 98816.0, 162816.0, 92672.0, 119296.0, 135168.0, 112128.0, 98816.0, 112128.0, 92672.0, 112128.0, 126976.0, 196608.0, 92672.0, 98816.0, 112128.0, 87040.0, 112128.0, 237568.0, 323584.0, 305152.0, 184320.0, 119296.0, 209920.0, 174080.0, 196608.0, 196608.0, 153600.0, 184320.0, 174080.0, 119296.0, 119296.0, 391168.0, 209920.0, 196608.0, 252928.0, 126976.0, 184320.0, 268288.0, 305152.0, 391168.0, 174080.0, 184320.0]","[10.875, 9.625, 9.375, 9.3125, 9.25, 9.1875, 9.25, 9.25, 9.375, 9.4375, 9.5625, 9.375, 9.3125, 9.3125, 9.375, 9.3125, 9.4375, 9.3125, 9.375, 9.4375, 9.3125, 9.3125, 9.3125, 9.375, 9.4375, 9.3125, 9.4375, 9.4375, 9.4375, 9.375, 9.3125, 9.375, 9.375, 9.4375, 9.375, 9.4375, 9.4375, 9.5, 9.375, 9.5, 9.5, 9.375, 9.5, 9.4375, 9.4375, 9.4375, 9.4375, 9.5625, 9.5, 9.5625, 9.4375, 9.375, 9.375, 9.25, 9.4375, 9.5, 9.5625, 9.5, 9.5625, 9.5, 9.4375, 9.5, 9.5, 9.5, 10.375, 9.8125, 9.75, 9.75, 9.75, 9.5, 9.6875, 9.5625, 9.6875, 9.5625, 9.5, 9.5625, 9.5625, 9.5625, 9.4375, 9.5, 9.5, 9.4375, 9.625, 9.75, 9.5625, 9.4375, 9.5, 9.4375, 9.5625, 9.5625, 9.5625, 9.4375, 9.5, 9.5, 9.5, 9.3125, 9.5, 9.5625, 9.4375, 9.375, 9.5625, 9.375, 9.375, 9.6875, 9.4375, 9.375, 9.25, 9.5, 9.4375, 9.5, 9.3125, 9.3125, 9.3125, 9.375, 9.5625, 9.375, 9.375, 9.4375, 9.5, 9.4375, 9.375, 9.375, 9.375, 9.4375, 9.5, 9.4375, 9.3125, 9.25, 9.3125, 9.4375, 9.4375, 9.4375, 9.4375, 9.375, 9.4375, 9.5, 9.4375, 9.5, 9.5, 9.6875, 9.4375, 9.3125, 9.5625, 9.4375, 9.5, 9.4375, 9.5, 9.5625, 9.3125, 9.375, 9.5, 9.5, 9.5, 9.4375, 9.5625, 9.625, 9.4375, 9.375, 9.5, 9.5, 9.6875, 9.75, 9.375, 9.4375, 9.5, 9.4375, 9.375, 9.4375, 9.4375, 9.375, 9.4375, 9.5, 9.5625, 9.4375, 9.5, 9.25, 9.375, 9.4375, 9.375, 9.375, 9.4375, 9.4375, 9.4375, 9.375, 9.4375, 9.4375, 9.5625, 9.4375, 9.375, 9.5625, 9.4375, 9.4375, 9.4375, 9.5, 9.5, 9.5625, 9.625, 9.375, 9.5625, 9.375, 9.3125, 9.5, 9.4375, 9.5625, 9.4375, 9.3125, 9.5, 9.5625, 9.5, 9.5625, 9.625, 9.6875, 9.5625, 9.5, 9.5, 9.625, 9.5, 9.4375, 9.4375, 9.5, 9.6875, 9.5625, 9.5, 9.625, 9.375, 9.4375, 9.5625, 9.5, 9.4375, 9.5, 9.5, 9.5, 9.5625, 9.625, 9.4375, 9.5, 9.5, 9.6875, 9.4375, 9.5, 9.625, 9.5625, 9.5625, 9.625, 9.625, 9.5, 9.625, 9.5, 9.375, 9.5625, 9.4375, 9.4375, 9.5, 9.6875, 9.4375, 9.5625, 9.5625, 9.5, 9.5625, 9.5, 9.5, 9.5625, 9.5625, 9.625, 9.5, 9.5625, 9.5625, 9.4375, 9.4375, 9.5625, 9.625, 9.4375, 9.5, 9.6875, 9.9375, 9.5625, 9.8125, 9.625, 9.5625, 9.6875, 9.5625, 9.5625, 9.5625, 9.625, 9.625, 9.6875, 9.75, 9.6875, 9.4375, 9.5, 9.5, 9.375, 9.5625, 9.625, 9.5, 9.75, 9.6875, 9.625, 9.625, 9.5625, 9.5625, 9.6875, 9.5625, 9.6875, 9.625, 9.8125, 9.75, 9.75, 9.75, 9.75, 9.75, 9.9375, 9.625, 9.5625, 9.6875, 9.6875, 9.6875, 9.4375, 9.625, 9.625, 9.4375, 9.5, 9.5, 9.4375, 9.4375, 9.375, 9.4375, 9.625, 9.5625, 9.4375, 9.5, 9.4375, 9.4375, 9.5625, 9.6875, 9.625, 9.6875, 9.5625, 9.8125, 9.5, 9.4375, 9.375, 9.375, 9.3125, 9.625, 9.375, 9.375, 9.375, 9.5, 9.4375, 9.4375, 9.4375, 9.5625, 9.4375, 9.6875, 10.0625, 9.4375, 9.5, 9.5, 10.0625, 10.3125, 10.0625, 10.0625, 10.0, 10.0, 9.5, 9.5, 9.5625, 9.4375, 9.4375, 9.5, 9.5, 9.5625, 9.625, 9.4375, 9.625, 9.5625, 9.625, 9.6875, 9.625, 9.625, 9.75, 9.8125, 9.5625, 9.5, 9.6875, 9.4375, 9.625, 9.375, 9.375, 9.3125, 9.3125, 9.4375, 9.5625, 9.5, 9.625, 9.375, 9.625, 9.25, 9.4375, 9.5, 10.125, 10.25, 10.0, 9.9375, 10.0, 9.9375, 9.8125, 9.75, 9.8125, 9.6875, 9.6875, 9.625, 9.6875, 9.625, 9.75, 9.8125, 9.625, 9.5625, 9.6875, 9.8125, 9.75, 10.125, 9.75, 9.6875, 9.625, 9.75, 9.9375, 9.75, 9.75, 9.625, 9.8125, 9.875, 9.5625, 9.75, 10.125, 10.1875, 10.1875, 10.4375, 10.3125, 10.125, 9.8125, 9.8125, 9.8125, 9.6875, 9.75, 10.0, 10.0, 10.1875, 9.8125, 9.875, 9.875, 9.8125, 9.8125, 9.9375, 9.875, 9.6875, 9.625, 9.6875, 9.875, 9.5625, 9.625, 9.625, 9.8125, 9.8125, 9.5, 9.5625, 9.375, 9.4375, 9.6875, 9.625, 9.625, 9.6875, 9.5, 9.6875, 9.5625, 9.625, 9.5, 9.5625, 9.625, 9.625, 9.375, 9.5, 9.5, 9.5, 9.625, 9.625, 9.625, 9.5625, 9.5625, 9.8125, 9.875, 9.5625, 9.6875, 9.75, 9.625, 9.8125, 9.5625, 9.6875, 9.625, 9.75, 9.875, 9.75, 9.8125, 9.75, 9.9375, 9.8125, 9.875, 9.9375, 9.8125, 9.75, 9.6875, 9.625, 9.625, 9.5625, 9.5, 9.375, 9.4375, 9.4375, 9.5625, 9.5, 9.6875, 9.8125, 9.625, 9.8125, 9.6875, 9.5625, 9.375, 9.5, 9.625, 9.625, 9.6875, 9.8125, 9.75, 9.6875, 9.625, 9.6875, 9.625, 9.4375, 9.8125, 9.875, 9.625, 9.5625, 9.6875, 10.125, 9.9375, 10.0, 9.75, 9.8125, 9.625, 9.625, 9.9375, 9.875, 9.625, 9.5625, 9.625, 9.6875, 10.3125, 10.125, 10.0625, 10.0, 9.75, 9.75, 9.8125, 10.0625, 10.1875, 10.0, 9.75, 9.75, 9.6875, 9.8125, 9.8125, 9.75, 9.5625, 9.625, 9.8125, 9.75, 9.75, 9.6875, 9.75, 9.875, 9.8125, 9.5625, 9.75, 9.875, 9.8125, 9.75, 9.625, 9.8125, 9.8125, 9.6875, 9.6875, 9.9375, 9.875, 9.8125, 9.8125, 9.75, 9.75, 9.5, 9.5625, 9.5, 9.5625, 9.75, 9.9375, 9.8125, 9.75, 9.75, 9.875, 9.5625, 9.625, 9.75, 9.625, 9.6875, 9.8125, 9.5625, 9.5625, 9.8125, 9.5625, 9.5625, 9.625, 9.8125, 9.625, 9.625, 9.8125, 9.875, 9.625, 9.5625, 9.5, 9.8125, 10.1875, 10.125, 10.1875, 10.1875, 10.0, 9.9375, 10.25, 10.4375, 10.1875, 9.9375, 10.0, 10.0625, 9.9375, 9.8125, 10.1875, 9.75, 9.9375, 10.1875, 10.0, 10.0625, 10.125, 10.25, 10.125, 10.125, 10.1875, 10.125, 10.0, 9.625, 9.8125, 10.125, 10.125, 9.875, 10.0, 9.875, 10.5, 10.375, 10.5, 10.25, 10.1875, 10.3125, 10.3125, 10.0, 10.1875, 10.0, 10.125, 10.0, 9.8125, 9.5625, 9.5625, 9.75, 9.9375, 9.75, 9.8125, 9.75, 9.5625, 9.875, 9.875, 9.875, 9.9375, 9.6875, 9.875, 10.0, 9.875, 9.9375, 9.875, 9.8125, 9.875, 9.9375, 10.0, 9.8125, 9.8125, 9.8125, 9.9375, 9.75, 9.75, 9.6875, 9.75, 10.0, 9.9375, 10.0, 9.6875, 9.6875, 9.8125, 9.75, 10.0, 10.0, 9.8125, 9.75, 9.875, 9.875, 10.125, 10.5, 10.1875, 10.3125, 10.125, 10.0, 9.9375, 9.75, 10.25, 10.0625, 10.25, 10.3125, 10.25, 10.1875, 9.9375, 10.0, 9.6875, 9.6875, 9.625, 9.875, 10.25, 10.25, 10.0, 9.875, 10.0, 10.25, 9.875, 9.875, 10.0, 10.125, 10.25, 10.25, 10.5625, 10.4375, 10.1875, 10.1875, 10.5625, 10.4375, 10.125, 10.5625, 10.0625, 10.1875, 10.1875, 10.3125, 9.9375, 10.25, 10.0, 10.0, 10.0625, 10.0625, 9.875, 10.0625, 9.875, 9.875, 10.0625, 10.0, 9.9375, 9.75, 9.6875, 9.625, 9.625, 9.8125, 10.0625, 9.9375, 10.1875, 10.0, 9.875, 10.1875, 9.8125, 9.875, 9.75, 9.9375, 9.75, 10.0, 9.75, 9.5625, 10.0, 11.125, 10.9375, 10.4375, 10.25, 10.0, 10.0, 9.875, 9.75, 10.125, 10.0, 10.0625, 9.8125, 10.625, 10.4375, 10.0625, 10.125, 10.0625, 10.375, 9.8125, 9.8125, 9.6875, 9.75, 10.6875, 10.625, 10.375, 10.375, 10.1875, 10.0625, 10.25, 9.9375, 10.3125, 10.375, 10.375, 10.3125, 10.125, 10.25, 10.125, 10.125, 10.0625, 10.3125, 10.125, 10.0625, 10.125, 10.0, 10.0, 9.875, 10.25, 9.75, 9.8125, 9.5625, 9.625, 10.0, 10.0, 9.9375, 10.375, 10.25, 9.6875, 10.1875, 10.125, 10.1875, 10.25, 10.1875, 10.0625, 9.875, 9.9375, 9.875, 9.6875, 10.0625, 10.4375, 10.0, 9.75, 10.0, 9.5, 9.75, 9.9375, 10.0, 10.1875, 10.0625, 10.25, 10.3125, 10.375, 10.3125, 10.375, 10.0625, 9.5, 9.4375, 9.75, 9.625, 10.0, 9.6875, 10.3125, 10.125, 9.375, 9.5, 9.5, 9.9375, 10.0, 10.0625, 10.0625, 10.0625, 10.5, 10.4375, 10.25, 9.9375, 10.125, 9.875, 10.3125, 10.25, 10.25, 10.1875, 10.25, 10.125, 10.0, 10.1875, 9.9375, 10.4375, 10.25, 10.5625, 10.3125, 10.25, 10.1875, 10.1875, 9.9375, 9.9375, 9.625, 9.75, 9.625, 9.75, 9.9375, 9.625, 9.9375, 10.0, 10.125, 10.0, 9.8125, 10.125, 9.9375, 10.1875, 10.0625, 10.0625, 10.0, 10.0625, 10.1875, 10.0, 10.0, 9.9375, 10.125, 10.125, 10.1875, 10.1875, 10.3125, 10.375, 10.6875, 10.375, 10.4375, 10.3125, 10.25, 10.25, 10.375, 10.4375, 10.25, 10.3125, 10.1875, 9.75, 9.8125, 9.8125, 9.625, 9.8125, 9.8125, 9.9375, 9.9375, 9.875, 10.1875, 10.125, 10.0, 9.75, 9.9375, 10.0, 10.1875, 10.1875, 9.9375, 10.0, 9.9375, 10.125, 10.1875, 10.25, 10.375, 10.3125, 10.25, 10.0625, 10.125, 10.25, 10.3125, 10.25, 10.3125, 9.9375, 9.75, 10.0, 9.875, 9.875, 9.875, 10.0, 10.25, 10.4375, 10.1875, 9.8125, 10.125, 10.125, 9.875, 9.875, 9.75, 10.0, 10.0, 10.0625, 10.375, 10.4375, 10.0625, 9.75, 9.875, 10.0, 10.0625, 10.375, 10.5625, 10.4375, 10.5, 10.4375, 10.4375, 10.75, 10.25, 10.1875, 10.6875, 10.625, 10.8125, 11.0625, 11.4375, 11.75, 11.5, 10.75, 10.5, 10.5, 10.6875, 10.75, 10.5, 10.25, 9.9375, 9.875, 10.125, 10.125, 10.0625, 10.5, 10.4375, 10.0, 10.1875, 10.125, 10.25, 10.0, 9.9375, 10.125, 10.4375, 10.25, 10.25, 10.1875, 10.375, 10.125, 10.125, 10.0, 10.875, 10.9375, 10.9375, 11.0, 10.25, 10.0625, 9.875, 9.875, 9.9375, 10.0, 10.25, 10.3125, 10.5, 10.3125, 10.3125, 10.1875, 10.25, 10.1875, 10.375, 10.3125, 10.1875, 10.125, 9.9375, 10.25, 10.0, 10.0625, 10.125, 10.1875, 9.9375, 10.5625, 10.4375, 10.25, 10.125, 10.0, 10.0, 10.25, 10.25, 10.375, 10.6875, 10.5, 10.5, 10.3125, 10.4375, 10.4375, 10.375, 10.5, 10.3125, 10.4375, 10.5, 10.4375, 10.25, 10.3125, 10.3125, 10.1875, 10.0, 10.0, 10.1875, 10.1875, 10.125, 10.125, 10.25, 10.3125, 10.1875, 10.1875, 10.125, 9.9375, 10.375, 10.9375, 10.9375, 10.625, 10.8125, 10.75, 10.1875, 9.75, 10.125, 10.1875, 9.9375, 10.1875, 10.4375, 10.375, 10.0625, 10.125, 10.3125, 10.25, 10.3125, 10.0625, 10.125, 10.0, 10.8125, 10.625, 10.25, 10.25, 10.25, 10.25, 10.25, 10.3125, 10.4375, 10.1875, 10.0625, 10.5, 10.1875, 10.25, 10.0625, 9.8125, 9.9375, 10.125, 9.875, 9.6875, 10.125, 10.0, 10.0, 10.0, 9.875, 9.75, 9.9375, 10.0, 10.0, 10.1875, 9.875, 10.1875, 10.0625, 9.5, 9.8125, 9.875, 9.75, 10.1875, 10.125, 10.125, 10.125, 10.0, 10.125, 10.0, 9.875, 10.0, 10.25, 9.9375, 10.0625, 10.5625, 10.0625, 10.0, 10.0, 9.8125, 9.75, 9.75, 9.875, 9.75, 9.9375, 9.9375, 9.875, 9.8125, 9.9375, 10.0625, 9.5625, 9.5, 9.625, 9.5625, 9.4375, 9.5, 9.625, 9.6875, 9.6875, 9.75, 9.875, 9.875, 9.6875, 9.5625, 9.8125, 9.8125, 9.8125, 9.75, 9.875, 9.8125, 9.6875, 9.625, 9.75, 9.625, 9.75, 10.0625, 10.0, 9.8125, 9.9375, 9.8125, 9.625, 9.8125, 9.6875, 9.6875, 9.9375, 9.875, 10.0, 9.6875, 9.9375, 9.9375, 10.0, 9.8125, 10.0625, 9.8125, 9.8125, 10.125, 10.125, 10.0, 10.0, 9.875, 9.9375, 10.1875, 10.1875, 10.5625, 10.4375, 9.9375, 10.125, 10.0625, 10.0, 9.9375, 10.0625, 10.125, 10.1875, 10.125, 10.125, 10.375, 10.5625, 10.4375, 10.25, 10.4375, 10.375, 10.375, 10.3125, 10.4375, 10.5, 9.875, 10.1875]","[52992.0, 15168.0, 11840.0, 11072.0, 10432.0, 9792.0, 10432.0, 10432.0, 11840.0, 12544.0, 14272.0, 11840.0, 11072.0, 11072.0, 11840.0, 11072.0, 12544.0, 11072.0, 11840.0, 12544.0, 11072.0, 11072.0, 11072.0, 11840.0, 12544.0, 11072.0, 12544.0, 12544.0, 12544.0, 11840.0, 11072.0, 11840.0, 11840.0, 12544.0, 11840.0, 12544.0, 12544.0, 13376.0, 11840.0, 13376.0, 13376.0, 11840.0, 13376.0, 12544.0, 12544.0, 12544.0, 12544.0, 14272.0, 13376.0, 14272.0, 12544.0, 11840.0, 11840.0, 10432.0, 12544.0, 13376.0, 14272.0, 13376.0, 14272.0, 13376.0, 12544.0, 13376.0, 13376.0, 13376.0, 32128.0, 18304.0, 17152.0, 17152.0, 17152.0, 13376.0, 16128.0, 14272.0, 16128.0, 14272.0, 13376.0, 14272.0, 14272.0, 14272.0, 12544.0, 13376.0, 13376.0, 12544.0, 15168.0, 17152.0, 14272.0, 12544.0, 13376.0, 12544.0, 14272.0, 14272.0, 14272.0, 12544.0, 13376.0, 13376.0, 13376.0, 11072.0, 13376.0, 14272.0, 12544.0, 11840.0, 14272.0, 11840.0, 11840.0, 16128.0, 12544.0, 11840.0, 10432.0, 13376.0, 12544.0, 13376.0, 11072.0, 11072.0, 11072.0, 11840.0, 14272.0, 11840.0, 11840.0, 12544.0, 13376.0, 12544.0, 11840.0, 11840.0, 11840.0, 12544.0, 13376.0, 12544.0, 11072.0, 10432.0, 11072.0, 12544.0, 12544.0, 12544.0, 12544.0, 11840.0, 12544.0, 13376.0, 12544.0, 13376.0, 13376.0, 16128.0, 12544.0, 11072.0, 14272.0, 12544.0, 13376.0, 12544.0, 13376.0, 14272.0, 11072.0, 11840.0, 13376.0, 13376.0, 13376.0, 12544.0, 14272.0, 15168.0, 12544.0, 11840.0, 13376.0, 13376.0, 16128.0, 17152.0, 11840.0, 12544.0, 13376.0, 12544.0, 11840.0, 12544.0, 12544.0, 11840.0, 12544.0, 13376.0, 14272.0, 12544.0, 13376.0, 10432.0, 11840.0, 12544.0, 11840.0, 11840.0, 12544.0, 12544.0, 12544.0, 11840.0, 12544.0, 12544.0, 14272.0, 12544.0, 11840.0, 14272.0, 12544.0, 12544.0, 12544.0, 13376.0, 13376.0, 14272.0, 15168.0, 11840.0, 14272.0, 11840.0, 11072.0, 13376.0, 12544.0, 14272.0, 12544.0, 11072.0, 13376.0, 14272.0, 13376.0, 14272.0, 15168.0, 16128.0, 14272.0, 13376.0, 13376.0, 15168.0, 13376.0, 12544.0, 12544.0, 13376.0, 16128.0, 14272.0, 13376.0, 15168.0, 11840.0, 12544.0, 14272.0, 13376.0, 12544.0, 13376.0, 13376.0, 13376.0, 14272.0, 15168.0, 12544.0, 13376.0, 13376.0, 16128.0, 12544.0, 13376.0, 15168.0, 14272.0, 14272.0, 15168.0, 15168.0, 13376.0, 15168.0, 13376.0, 11840.0, 14272.0, 12544.0, 12544.0, 13376.0, 16128.0, 12544.0, 14272.0, 14272.0, 13376.0, 14272.0, 13376.0, 13376.0, 14272.0, 14272.0, 15168.0, 13376.0, 14272.0, 14272.0, 12544.0, 12544.0, 14272.0, 15168.0, 12544.0, 13376.0, 16128.0, 20736.0, 14272.0, 18304.0, 15168.0, 14272.0, 16128.0, 14272.0, 14272.0, 14272.0, 15168.0, 15168.0, 16128.0, 17152.0, 16128.0, 12544.0, 13376.0, 13376.0, 11840.0, 14272.0, 15168.0, 13376.0, 17152.0, 16128.0, 15168.0, 15168.0, 14272.0, 14272.0, 16128.0, 14272.0, 16128.0, 15168.0, 18304.0, 17152.0, 17152.0, 17152.0, 17152.0, 17152.0, 20736.0, 15168.0, 14272.0, 16128.0, 16128.0, 16128.0, 12544.0, 15168.0, 15168.0, 12544.0, 13376.0, 13376.0, 12544.0, 12544.0, 11840.0, 12544.0, 15168.0, 14272.0, 12544.0, 13376.0, 12544.0, 12544.0, 14272.0, 16128.0, 15168.0, 16128.0, 14272.0, 18304.0, 13376.0, 12544.0, 11840.0, 11840.0, 11072.0, 15168.0, 11840.0, 11840.0, 11840.0, 13376.0, 12544.0, 12544.0, 12544.0, 14272.0, 12544.0, 16128.0, 23424.0, 12544.0, 13376.0, 13376.0, 23424.0, 30208.0, 23424.0, 23424.0, 22016.0, 22016.0, 13376.0, 13376.0, 14272.0, 12544.0, 12544.0, 13376.0, 13376.0, 14272.0, 15168.0, 12544.0, 15168.0, 14272.0, 15168.0, 16128.0, 15168.0, 15168.0, 17152.0, 18304.0, 14272.0, 13376.0, 16128.0, 12544.0, 15168.0, 11840.0, 11840.0, 11072.0, 11072.0, 12544.0, 14272.0, 13376.0, 15168.0, 11840.0, 15168.0, 10432.0, 12544.0, 13376.0, 24960.0, 28288.0, 22016.0, 20736.0, 22016.0, 20736.0, 18304.0, 17152.0, 18304.0, 16128.0, 16128.0, 15168.0, 16128.0, 15168.0, 17152.0, 18304.0, 15168.0, 14272.0, 16128.0, 18304.0, 17152.0, 24960.0, 17152.0, 16128.0, 15168.0, 17152.0, 20736.0, 17152.0, 17152.0, 15168.0, 18304.0, 19456.0, 14272.0, 17152.0, 24960.0, 26624.0, 26624.0, 34304.0, 30208.0, 24960.0, 18304.0, 18304.0, 18304.0, 16128.0, 17152.0, 22016.0, 22016.0, 26624.0, 18304.0, 19456.0, 19456.0, 18304.0, 18304.0, 20736.0, 19456.0, 16128.0, 15168.0, 16128.0, 19456.0, 14272.0, 15168.0, 15168.0, 18304.0, 18304.0, 13376.0, 14272.0, 11840.0, 12544.0, 16128.0, 15168.0, 15168.0, 16128.0, 13376.0, 16128.0, 14272.0, 15168.0, 13376.0, 14272.0, 15168.0, 15168.0, 11840.0, 13376.0, 13376.0, 13376.0, 15168.0, 15168.0, 15168.0, 14272.0, 14272.0, 18304.0, 19456.0, 14272.0, 16128.0, 17152.0, 15168.0, 18304.0, 14272.0, 16128.0, 15168.0, 17152.0, 19456.0, 17152.0, 18304.0, 17152.0, 20736.0, 18304.0, 19456.0, 20736.0, 18304.0, 17152.0, 16128.0, 15168.0, 15168.0, 14272.0, 13376.0, 11840.0, 12544.0, 12544.0, 14272.0, 13376.0, 16128.0, 18304.0, 15168.0, 18304.0, 16128.0, 14272.0, 11840.0, 13376.0, 15168.0, 15168.0, 16128.0, 18304.0, 17152.0, 16128.0, 15168.0, 16128.0, 15168.0, 12544.0, 18304.0, 19456.0, 15168.0, 14272.0, 16128.0, 24960.0, 20736.0, 22016.0, 17152.0, 18304.0, 15168.0, 15168.0, 20736.0, 19456.0, 15168.0, 14272.0, 15168.0, 16128.0, 30208.0, 24960.0, 23424.0, 22016.0, 17152.0, 17152.0, 18304.0, 23424.0, 26624.0, 22016.0, 17152.0, 17152.0, 16128.0, 18304.0, 18304.0, 17152.0, 14272.0, 15168.0, 18304.0, 17152.0, 17152.0, 16128.0, 17152.0, 19456.0, 18304.0, 14272.0, 17152.0, 19456.0, 18304.0, 17152.0, 15168.0, 18304.0, 18304.0, 16128.0, 16128.0, 20736.0, 19456.0, 18304.0, 18304.0, 17152.0, 17152.0, 13376.0, 14272.0, 13376.0, 14272.0, 17152.0, 20736.0, 18304.0, 17152.0, 17152.0, 19456.0, 14272.0, 15168.0, 17152.0, 15168.0, 16128.0, 18304.0, 14272.0, 14272.0, 18304.0, 14272.0, 14272.0, 15168.0, 18304.0, 15168.0, 15168.0, 18304.0, 19456.0, 15168.0, 14272.0, 13376.0, 18304.0, 26624.0, 24960.0, 26624.0, 26624.0, 22016.0, 20736.0, 28288.0, 34304.0, 26624.0, 20736.0, 22016.0, 23424.0, 20736.0, 18304.0, 26624.0, 17152.0, 20736.0, 26624.0, 22016.0, 23424.0, 24960.0, 28288.0, 24960.0, 24960.0, 26624.0, 24960.0, 22016.0, 15168.0, 18304.0, 24960.0, 24960.0, 19456.0, 22016.0, 19456.0, 36352.0, 32128.0, 36352.0, 28288.0, 26624.0, 30208.0, 30208.0, 22016.0, 26624.0, 22016.0, 24960.0, 22016.0, 18304.0, 14272.0, 14272.0, 17152.0, 20736.0, 17152.0, 18304.0, 17152.0, 14272.0, 19456.0, 19456.0, 19456.0, 20736.0, 16128.0, 19456.0, 22016.0, 19456.0, 20736.0, 19456.0, 18304.0, 19456.0, 20736.0, 22016.0, 18304.0, 18304.0, 18304.0, 20736.0, 17152.0, 17152.0, 16128.0, 17152.0, 22016.0, 20736.0, 22016.0, 16128.0, 16128.0, 18304.0, 17152.0, 22016.0, 22016.0, 18304.0, 17152.0, 19456.0, 19456.0, 24960.0, 36352.0, 26624.0, 30208.0, 24960.0, 22016.0, 20736.0, 17152.0, 28288.0, 23424.0, 28288.0, 30208.0, 28288.0, 26624.0, 20736.0, 22016.0, 16128.0, 16128.0, 15168.0, 19456.0, 28288.0, 28288.0, 22016.0, 19456.0, 22016.0, 28288.0, 19456.0, 19456.0, 22016.0, 24960.0, 28288.0, 28288.0, 38656.0, 34304.0, 26624.0, 26624.0, 38656.0, 34304.0, 24960.0, 38656.0, 23424.0, 26624.0, 26624.0, 30208.0, 20736.0, 28288.0, 22016.0, 22016.0, 23424.0, 23424.0, 19456.0, 23424.0, 19456.0, 19456.0, 23424.0, 22016.0, 20736.0, 17152.0, 16128.0, 15168.0, 15168.0, 18304.0, 23424.0, 20736.0, 26624.0, 22016.0, 19456.0, 26624.0, 18304.0, 19456.0, 17152.0, 20736.0, 17152.0, 22016.0, 17152.0, 14272.0, 22016.0, 68096.0, 56320.0, 34304.0, 28288.0, 22016.0, 22016.0, 19456.0, 17152.0, 24960.0, 22016.0, 23424.0, 18304.0, 41216.0, 34304.0, 23424.0, 24960.0, 23424.0, 32128.0, 18304.0, 18304.0, 16128.0, 17152.0, 43776.0, 41216.0, 32128.0, 32128.0, 26624.0, 23424.0, 28288.0, 20736.0, 30208.0, 32128.0, 32128.0, 30208.0, 24960.0, 28288.0, 24960.0, 24960.0, 23424.0, 30208.0, 24960.0, 23424.0, 24960.0, 22016.0, 22016.0, 19456.0, 28288.0, 17152.0, 18304.0, 14272.0, 15168.0, 22016.0, 22016.0, 20736.0, 32128.0, 28288.0, 16128.0, 26624.0, 24960.0, 26624.0, 28288.0, 26624.0, 23424.0, 19456.0, 20736.0, 19456.0, 16128.0, 23424.0, 34304.0, 22016.0, 17152.0, 22016.0, 13376.0, 17152.0, 20736.0, 22016.0, 26624.0, 23424.0, 28288.0, 30208.0, 32128.0, 30208.0, 32128.0, 23424.0, 13376.0, 12544.0, 17152.0, 15168.0, 22016.0, 16128.0, 30208.0, 24960.0, 11840.0, 13376.0, 13376.0, 20736.0, 22016.0, 23424.0, 23424.0, 23424.0, 36352.0, 34304.0, 28288.0, 20736.0, 24960.0, 19456.0, 30208.0, 28288.0, 28288.0, 26624.0, 28288.0, 24960.0, 22016.0, 26624.0, 20736.0, 34304.0, 28288.0, 38656.0, 30208.0, 28288.0, 26624.0, 26624.0, 20736.0, 20736.0, 15168.0, 17152.0, 15168.0, 17152.0, 20736.0, 15168.0, 20736.0, 22016.0, 24960.0, 22016.0, 18304.0, 24960.0, 20736.0, 26624.0, 23424.0, 23424.0, 22016.0, 23424.0, 26624.0, 22016.0, 22016.0, 20736.0, 24960.0, 24960.0, 26624.0, 26624.0, 30208.0, 32128.0, 43776.0, 32128.0, 34304.0, 30208.0, 28288.0, 28288.0, 32128.0, 34304.0, 28288.0, 30208.0, 26624.0, 17152.0, 18304.0, 18304.0, 15168.0, 18304.0, 18304.0, 20736.0, 20736.0, 19456.0, 26624.0, 24960.0, 22016.0, 17152.0, 20736.0, 22016.0, 26624.0, 26624.0, 20736.0, 22016.0, 20736.0, 24960.0, 26624.0, 28288.0, 32128.0, 30208.0, 28288.0, 23424.0, 24960.0, 28288.0, 30208.0, 28288.0, 30208.0, 20736.0, 17152.0, 22016.0, 19456.0, 19456.0, 19456.0, 22016.0, 28288.0, 34304.0, 26624.0, 18304.0, 24960.0, 24960.0, 19456.0, 19456.0, 17152.0, 22016.0, 22016.0, 23424.0, 32128.0, 34304.0, 23424.0, 17152.0, 19456.0, 22016.0, 23424.0, 32128.0, 38656.0, 34304.0, 36352.0, 34304.0, 34304.0, 46592.0, 28288.0, 26624.0, 43776.0, 41216.0, 49664.0, 63744.0, 92672.0, 126976.0, 98816.0, 46592.0, 36352.0, 36352.0, 43776.0, 46592.0, 36352.0, 28288.0, 20736.0, 19456.0, 24960.0, 24960.0, 23424.0, 36352.0, 34304.0, 22016.0, 26624.0, 24960.0, 28288.0, 22016.0, 20736.0, 24960.0, 34304.0, 28288.0, 28288.0, 26624.0, 32128.0, 24960.0, 24960.0, 22016.0, 52992.0, 56320.0, 56320.0, 59904.0, 28288.0, 23424.0, 19456.0, 19456.0, 20736.0, 22016.0, 28288.0, 30208.0, 36352.0, 30208.0, 30208.0, 26624.0, 28288.0, 26624.0, 32128.0, 30208.0, 26624.0, 24960.0, 20736.0, 28288.0, 22016.0, 23424.0, 24960.0, 26624.0, 20736.0, 38656.0, 34304.0, 28288.0, 24960.0, 22016.0, 22016.0, 28288.0, 28288.0, 32128.0, 43776.0, 36352.0, 36352.0, 30208.0, 34304.0, 34304.0, 32128.0, 36352.0, 30208.0, 34304.0, 36352.0, 34304.0, 28288.0, 30208.0, 30208.0, 26624.0, 22016.0, 22016.0, 26624.0, 26624.0, 24960.0, 24960.0, 28288.0, 30208.0, 26624.0, 26624.0, 24960.0, 20736.0, 32128.0, 56320.0, 56320.0, 41216.0, 49664.0, 46592.0, 26624.0, 17152.0, 24960.0, 26624.0, 20736.0, 26624.0, 34304.0, 32128.0, 23424.0, 24960.0, 30208.0, 28288.0, 30208.0, 23424.0, 24960.0, 22016.0, 49664.0, 41216.0, 28288.0, 28288.0, 28288.0, 28288.0, 28288.0, 30208.0, 34304.0, 26624.0, 23424.0, 36352.0, 26624.0, 28288.0, 23424.0, 18304.0, 20736.0, 24960.0, 19456.0, 16128.0, 24960.0, 22016.0, 22016.0, 22016.0, 19456.0, 17152.0, 20736.0, 22016.0, 22016.0, 26624.0, 19456.0, 26624.0, 23424.0, 13376.0, 18304.0, 19456.0, 17152.0, 26624.0, 24960.0, 24960.0, 24960.0, 22016.0, 24960.0, 22016.0, 19456.0, 22016.0, 28288.0, 20736.0, 23424.0, 38656.0, 23424.0, 22016.0, 22016.0, 18304.0, 17152.0, 17152.0, 19456.0, 17152.0, 20736.0, 20736.0, 19456.0, 18304.0, 20736.0, 23424.0, 14272.0, 13376.0, 15168.0, 14272.0, 12544.0, 13376.0, 15168.0, 16128.0, 16128.0, 17152.0, 19456.0, 19456.0, 16128.0, 14272.0, 18304.0, 18304.0, 18304.0, 17152.0, 19456.0, 18304.0, 16128.0, 15168.0, 17152.0, 15168.0, 17152.0, 23424.0, 22016.0, 18304.0, 20736.0, 18304.0, 15168.0, 18304.0, 16128.0, 16128.0, 20736.0, 19456.0, 22016.0, 16128.0, 20736.0, 20736.0, 22016.0, 18304.0, 23424.0, 18304.0, 18304.0, 24960.0, 24960.0, 22016.0, 22016.0, 19456.0, 20736.0, 26624.0, 26624.0, 38656.0, 34304.0, 20736.0, 24960.0, 23424.0, 22016.0, 20736.0, 23424.0, 24960.0, 26624.0, 24960.0, 24960.0, 32128.0, 38656.0, 34304.0, 28288.0, 34304.0, 32128.0, 32128.0, 30208.0, 34304.0, 36352.0, 19456.0, 26624.0]","[10.9375, 9.3125, 9.0625, 9.0625, 9.0, 9.0, 9.0, 9.0, 9.125, 9.1875, 9.25, 9.1875, 9.0, 9.1875, 9.375, 9.5, 9.375, 9.0625, 9.4375, 9.1875, 9.0625, 9.0625, 9.125, 9.1875, 9.4375, 9.3125, 9.375, 9.3125, 9.375, 9.3125, 9.1875, 9.3125, 9.3125, 9.25, 9.3125, 9.25, 9.25, 9.5625, 9.125, 9.6875, 9.4375, 9.375, 9.375, 9.3125, 9.1875, 9.375, 9.3125, 9.9375, 9.875, 10.0, 10.0625, 9.8125, 9.5, 9.375, 9.625, 10.1875, 10.1875, 10.5, 10.625, 9.9375, 9.5, 9.75, 10.75, 11.0625, 20.375, 16.0, 12.75, 14.9375, 14.6875, 11.25, 13.8125, 12.0625, 9.9375, 9.5, 9.375, 9.4375, 9.5625, 9.625, 9.5625, 9.5625, 9.625, 9.8125, 10.125, 9.9375, 9.5, 9.375, 9.4375, 9.375, 9.5, 9.4375, 9.5, 9.5, 9.4375, 9.4375, 9.625, 9.375, 9.5625, 9.75, 9.6875, 9.4375, 9.3125, 9.5625, 9.5625, 10.1875, 9.8125, 9.75, 9.5, 9.9375, 10.125, 10.0, 9.75, 9.9375, 9.8125, 9.875, 10.0, 9.6875, 9.9375, 10.0, 10.1875, 10.1875, 10.1875, 10.0625, 10.0, 10.1875, 10.25, 10.3125, 9.6875, 9.4375, 9.4375, 10.0, 9.9375, 10.3125, 10.1875, 10.1875, 10.25, 10.4375, 10.25, 10.375, 10.5625, 10.625, 10.5625, 10.1875, 10.4375, 10.375, 10.3125, 10.1875, 10.125, 10.1875, 10.0625, 10.0625, 10.4375, 10.1875, 10.4375, 10.3125, 10.1875, 10.1875, 9.9375, 9.6875, 9.9375, 10.0625, 10.625, 11.1875, 10.1875, 9.9375, 9.625, 9.4375, 9.5625, 9.5625, 9.6875, 9.6875, 9.875, 9.9375, 9.875, 9.875, 10.0625, 9.875, 10.0, 10.125, 9.625, 9.5, 9.75, 9.75, 10.0, 9.875, 9.9375, 10.25, 10.0, 9.9375, 9.625, 9.875, 9.9375, 10.0, 10.0625, 10.0, 9.9375, 10.0, 10.3125, 9.8125, 10.0625, 10.1875, 9.875, 10.1875, 10.0625, 10.5, 10.125, 9.875, 10.125, 10.0625, 10.25, 10.125, 10.375, 10.875, 10.25, 9.8125, 9.875, 9.625, 9.6875, 9.6875, 9.9375, 9.875, 10.125, 11.0, 10.6875, 10.9375, 10.125, 10.125, 10.1875, 10.5, 10.0, 10.25, 10.5625, 10.5625, 10.8125, 11.0, 10.1875, 10.5, 10.1875, 10.625, 10.0625, 10.625, 11.0, 10.625, 10.625, 10.75, 10.75, 10.5, 10.625, 10.375, 10.125, 10.3125, 10.0, 10.375, 9.9375, 10.3125, 10.0625, 10.25, 10.3125, 10.25, 10.6875, 10.3125, 10.25, 10.4375, 10.375, 10.75, 10.5, 10.3125, 10.5, 9.75, 9.8125, 10.0, 10.4375, 10.0, 10.3125, 10.625, 11.125, 10.5, 11.0, 10.3125, 10.4375, 10.8125, 10.0625, 10.4375, 10.0, 10.5625, 10.4375, 10.8125, 11.0625, 11.0625, 10.25, 10.4375, 10.125, 9.875, 10.5625, 10.625, 10.5, 10.75, 11.0, 10.5, 10.4375, 10.375, 10.25, 10.5, 10.75, 10.5, 10.5, 10.625, 10.5625, 10.75, 10.875, 10.5625, 10.5625, 11.0625, 10.1875, 10.0625, 10.4375, 10.5625, 10.8125, 10.1875, 10.8125, 10.625, 10.3125, 10.3125, 9.9375, 9.9375, 10.25, 10.125, 10.0625, 10.4375, 10.3125, 9.9375, 9.875, 9.875, 10.0625, 10.3125, 10.4375, 10.5, 10.75, 10.625, 11.5625, 9.5625, 9.4375, 9.375, 9.4375, 9.25, 9.5, 9.375, 9.375, 9.4375, 9.375, 9.5, 9.6875, 9.5, 9.9375, 9.625, 10.125, 11.375, 10.3125, 10.1875, 10.375, 11.9375, 12.6875, 12.1875, 11.875, 11.9375, 12.0625, 10.0625, 9.6875, 9.875, 9.6875, 9.5625, 9.875, 9.75, 10.0, 10.3125, 10.0, 10.6875, 10.375, 10.25, 10.375, 10.375, 10.625, 11.0625, 11.375, 10.8125, 10.5, 10.6875, 10.3125, 10.5, 10.125, 9.9375, 10.0, 10.0625, 10.5, 10.5625, 10.4375, 11.25, 10.25, 10.6875, 9.8125, 10.0625, 10.375, 12.375, 12.3125, 11.625, 11.6875, 12.0, 11.8125, 11.4375, 11.0, 11.8125, 12.25, 11.5, 11.5, 11.3125, 11.375, 11.4375, 11.375, 11.0625, 11.375, 11.375, 12.5625, 12.375, 13.5625, 12.0, 11.8125, 11.4375, 11.9375, 12.375, 11.8125, 11.875, 10.9375, 12.375, 12.375, 10.4375, 11.1875, 13.5, 14.125, 14.125, 15.0625, 14.8125, 14.0, 13.0625, 13.125, 12.875, 12.5625, 12.8125, 13.5, 13.1875, 14.0, 12.4375, 12.25, 12.375, 12.3125, 12.3125, 12.625, 12.625, 12.0, 11.5625, 11.8125, 12.1875, 11.25, 11.375, 11.875, 12.125, 12.375, 11.3125, 11.125, 10.625, 10.25, 11.0625, 11.5, 11.0, 11.6875, 11.0, 11.375, 10.9375, 11.4375, 11.6875, 11.0, 11.4375, 11.375, 10.1875, 10.4375, 10.4375, 10.25, 10.9375, 11.4375, 10.875, 10.6875, 10.75, 11.75, 11.6875, 10.6875, 11.3125, 11.3125, 11.1875, 11.9375, 10.875, 11.0, 10.875, 11.3125, 11.875, 11.875, 12.0625, 11.6875, 11.875, 11.9375, 11.5, 12.0625, 11.5625, 11.625, 11.4375, 11.1875, 11.0, 11.0, 10.1875, 10.1875, 10.375, 10.4375, 10.5625, 10.625, 11.25, 11.9375, 11.625, 11.8125, 11.25, 10.5625, 10.125, 10.75, 10.75, 11.125, 11.0, 11.5, 11.0625, 11.0625, 10.8125, 10.6875, 10.6875, 10.0625, 11.5625, 11.3125, 10.4375, 10.5625, 11.5, 11.9375, 11.5, 11.8125, 11.6875, 11.5625, 10.75, 11.0625, 11.6875, 11.9375, 11.375, 11.0625, 11.0625, 11.6875, 13.0625, 12.5625, 12.3125, 12.1875, 12.0625, 11.9375, 11.8125, 12.25, 12.4375, 11.9375, 11.75, 11.6875, 11.1875, 11.25, 10.875, 10.9375, 10.4375, 10.5, 10.8125, 11.0, 10.75, 10.5, 10.75, 11.0625, 10.6875, 10.3125, 10.875, 11.3125, 11.0625, 11.0625, 10.9375, 11.0, 11.1875, 10.875, 11.125, 11.125, 11.125, 11.5, 11.75, 11.4375, 11.5, 11.0, 10.8125, 10.375, 10.4375, 11.1875, 12.1875, 12.0625, 11.5, 11.375, 11.25, 10.6875, 10.6875, 10.9375, 10.8125, 11.1875, 11.5, 11.0, 10.9375, 11.5625, 10.75, 11.0, 11.1875, 11.9375, 10.5, 10.625, 11.6875, 12.0, 11.0625, 10.625, 10.9375, 11.9375, 13.0, 13.0, 13.0, 12.6875, 12.25, 12.3125, 13.1875, 13.375, 12.875, 12.375, 11.9375, 12.5625, 12.4375, 12.25, 12.8125, 12.1875, 12.125, 12.875, 12.75, 13.125, 12.6875, 12.8125, 12.3125, 12.3125, 12.8125, 12.75, 12.25, 11.1875, 11.4375, 13.375, 13.3125, 12.0, 12.25, 12.3125, 14.375, 14.125, 14.125, 13.625, 13.0625, 12.75, 13.125, 12.4375, 12.625, 13.1875, 14.0, 13.0625, 11.8125, 9.9375, 10.3125, 11.5, 12.8125, 12.8125, 12.4375, 11.5625, 11.3125, 12.5, 12.875, 12.75, 12.1875, 11.625, 12.125, 12.5, 11.8125, 12.0625, 11.5625, 11.875, 12.3125, 12.625, 12.25, 11.1875, 11.4375, 11.1875, 11.25, 11.1875, 10.8125, 11.375, 11.5, 11.5, 11.375, 11.8125, 11.125, 11.0625, 11.8125, 11.25, 11.6875, 11.5, 11.6875, 11.375, 11.5625, 11.75, 12.625, 13.9375, 13.0625, 12.875, 12.75, 12.3125, 11.875, 11.4375, 13.0625, 12.25, 12.5625, 13.375, 13.375, 13.25, 13.3125, 12.625, 11.25, 10.6875, 11.125, 11.875, 12.5, 12.25, 12.0, 11.625, 11.9375, 12.375, 11.6875, 11.8125, 11.875, 12.0, 12.8125, 12.875, 13.5625, 13.0625, 12.5, 12.3125, 13.1875, 13.125, 12.125, 13.0, 13.0, 13.0625, 12.625, 13.3125, 12.8125, 13.0625, 11.75, 11.875, 11.75, 11.9375, 11.1875, 12.0, 11.75, 11.625, 12.5, 12.25, 12.3125, 11.8125, 11.5, 10.8125, 11.25, 11.625, 12.0625, 11.9375, 12.375, 11.9375, 11.6875, 12.0, 11.25, 11.0625, 11.0625, 11.0625, 10.9375, 11.3125, 10.4375, 9.875, 11.1875, 15.3125, 15.1875, 13.8125, 13.6875, 12.3125, 12.1875, 12.1875, 12.4375, 12.375, 12.0625, 11.875, 11.9375, 14.4375, 13.25, 12.375, 12.4375, 12.625, 13.375, 11.625, 11.1875, 11.1875, 11.1875, 14.1875, 14.0625, 13.4375, 13.5, 13.0625, 12.625, 12.8125, 11.4375, 14.75, 15.375, 14.3125, 13.625, 13.0625, 13.25, 12.8125, 12.8125, 13.0625, 13.8125, 13.0625, 13.1875, 13.1875, 12.375, 12.625, 12.8125, 13.3125, 12.0, 11.6875, 11.3125, 11.75, 12.3125, 12.6875, 12.3125, 13.4375, 12.0, 11.1875, 14.0, 13.875, 13.6875, 13.9375, 13.375, 13.1875, 12.875, 11.6875, 12.0, 11.75, 12.4375, 14.125, 12.6875, 12.1875, 12.75, 11.5, 12.25, 12.8125, 12.5625, 13.1875, 13.125, 13.0, 13.875, 13.8125, 13.875, 14.125, 12.5, 11.375, 11.3125, 11.5625, 11.375, 12.0625, 11.6875, 14.75, 14.0625, 10.375, 10.625, 10.75, 12.0, 12.3125, 12.375, 12.75, 12.75, 13.8125, 14.1875, 13.0625, 11.9375, 12.375, 12.0, 13.0, 13.1875, 12.9375, 13.25, 12.9375, 13.25, 12.9375, 13.5, 13.0625, 14.4375, 13.625, 14.6875, 13.5, 13.375, 13.5625, 14.0, 13.6875, 13.3125, 12.3125, 12.1875, 11.5, 11.75, 12.4375, 11.6875, 12.5, 12.5625, 12.9375, 12.375, 12.4375, 12.75, 12.375, 13.0, 13.0625, 12.875, 13.0625, 13.4375, 13.4375, 13.125, 12.5, 12.125, 12.75, 12.9375, 12.5, 12.5625, 13.5, 13.625, 14.5, 13.875, 13.75, 14.5625, 13.9375, 13.6875, 13.875, 14.1875, 13.9375, 13.875, 13.25, 12.4375, 12.8125, 11.8125, 11.875, 12.5625, 11.9375, 12.625, 12.5625, 12.25, 13.4375, 13.3125, 12.75, 12.3125, 12.8125, 12.8125, 13.625, 13.5, 13.0625, 13.0625, 12.5, 12.6875, 13.4375, 13.6875, 13.4375, 12.875, 12.875, 11.9375, 12.6875, 13.5625, 13.25, 13.1875, 13.1875, 12.625, 12.125, 12.375, 12.3125, 11.75, 11.625, 12.125, 12.8125, 13.6875, 13.3125, 11.75, 12.5, 12.625, 12.625, 12.125, 12.0625, 12.3125, 12.0625, 12.1875, 13.0, 13.1875, 12.0, 11.3125, 11.625, 11.875, 12.0625, 12.6875, 12.9375, 13.0625, 13.4375, 13.125, 13.0625, 13.25, 12.4375, 12.25, 13.5, 14.4375, 14.3125, 15.4375, 18.0, 18.75, 17.875, 16.375, 15.0625, 14.4375, 14.6875, 14.4375, 14.125, 13.5, 13.0625, 12.75, 12.6875, 13.1875, 12.375, 13.625, 13.3125, 12.4375, 13.1875, 13.875, 13.5625, 12.5, 12.0, 12.375, 13.375, 13.3125, 13.0625, 12.9375, 13.125, 12.625, 12.5, 12.125, 14.8125, 15.4375, 15.1875, 15.1875, 13.25, 12.375, 11.875, 11.6875, 12.3125, 12.625, 13.0, 12.8125, 13.5, 13.1875, 12.875, 12.6875, 12.9375, 12.6875, 13.25, 12.4375, 11.9375, 11.75, 11.25, 12.0, 11.5, 11.5, 11.75, 12.125, 12.375, 13.75, 13.4375, 13.4375, 13.0, 12.5625, 12.625, 12.75, 12.4375, 13.375, 14.125, 13.375, 12.8125, 12.875, 13.3125, 13.1875, 12.8125, 13.5625, 13.0625, 12.375, 12.875, 12.6875, 12.625, 12.4375, 13.125, 12.3125, 11.625, 11.8125, 12.75, 12.125, 11.4375, 12.0625, 12.1875, 12.75, 12.5, 12.6875, 12.1875, 11.8125, 12.9375, 14.3125, 14.0, 13.1875, 13.875, 13.8125, 11.9375, 11.1875, 12.1875, 12.125, 12.0625, 12.75, 13.375, 13.125, 12.125, 12.25, 12.6875, 12.4375, 12.5, 12.125, 12.0, 12.3125, 14.75, 13.875, 12.8125, 12.8125, 12.875, 13.1875, 13.0, 12.9375, 13.3125, 12.8125, 12.375, 13.0, 13.0, 13.5625, 13.0, 12.625, 12.4375, 12.75, 11.875, 11.75, 12.625, 12.375, 12.125, 12.1875, 11.625, 11.75, 11.75, 12.0625, 12.4375, 12.5625, 11.9375, 13.125, 12.25, 11.125, 11.8125, 11.5625, 12.125, 13.0625, 13.375, 12.125, 12.625, 12.625, 12.5, 11.6875, 11.75, 12.0625, 12.3125, 12.0, 12.375, 16.0, 13.0, 13.0625, 11.75, 11.625, 12.5, 12.5, 11.625, 12.1875, 12.5625, 13.125, 12.4375, 11.8125, 12.5625, 12.4375, 9.5625, 9.25, 9.5625, 9.5, 9.375, 9.4375, 9.9375, 10.125, 9.9375, 10.875, 11.3125, 10.75, 10.6875, 10.125, 10.4375, 10.5625, 10.625, 10.9375, 11.3125, 11.0, 10.625, 10.5625, 11.0, 10.625, 10.4375, 12.125, 11.875, 11.75, 11.5, 11.375, 10.875, 11.125, 11.375, 11.625, 11.75, 12.0, 12.3125, 11.75, 11.8125, 11.8125, 11.875, 11.625, 11.6875, 11.3125, 11.1875, 11.25, 11.4375, 12.0625, 11.75, 11.375, 11.1875, 11.0, 12.6875, 13.125, 12.5, 11.625, 11.75, 11.6875, 11.6875, 11.5, 11.875, 11.375, 11.5, 11.1875, 11.5, 12.5625, 14.4375, 14.3125, 13.875, 13.4375, 13.4375, 13.0, 12.8125, 12.8125, 12.75, 12.5625, 12.375]","[56320.0, 11072.0, 8640.0, 8640.0, 8128.0, 8128.0, 8128.0, 8128.0, 9216.0, 9792.0, 10432.0, 9792.0, 8128.0, 9792.0, 11840.0, 13376.0, 11840.0, 8640.0, 12544.0, 9792.0, 8640.0, 8640.0, 9216.0, 9792.0, 12544.0, 11072.0, 11840.0, 11072.0, 11840.0, 11072.0, 9792.0, 11072.0, 11072.0, 10432.0, 11072.0, 10432.0, 10432.0, 14272.0, 9216.0, 16128.0, 12544.0, 11840.0, 11840.0, 11072.0, 9792.0, 11840.0, 11072.0, 20736.0, 19456.0, 22016.0, 23424.0, 18304.0, 13376.0, 11840.0, 15168.0, 26624.0, 26624.0, 36352.0, 41216.0, 20736.0, 13376.0, 17152.0, 46592.0, 63744.0, 708837376.0, 8912896.0, 346112.0, 3080192.0, 2392064.0, 76800.0, 999424.0, 174080.0, 20736.0, 13376.0, 11840.0, 12544.0, 14272.0, 15168.0, 14272.0, 14272.0, 15168.0, 18304.0, 24960.0, 20736.0, 13376.0, 11840.0, 12544.0, 11840.0, 13376.0, 12544.0, 13376.0, 13376.0, 12544.0, 12544.0, 15168.0, 11840.0, 14272.0, 17152.0, 16128.0, 12544.0, 11072.0, 14272.0, 14272.0, 26624.0, 18304.0, 17152.0, 13376.0, 20736.0, 24960.0, 22016.0, 17152.0, 20736.0, 18304.0, 19456.0, 22016.0, 16128.0, 20736.0, 22016.0, 26624.0, 26624.0, 26624.0, 23424.0, 22016.0, 26624.0, 28288.0, 30208.0, 16128.0, 12544.0, 12544.0, 22016.0, 20736.0, 30208.0, 26624.0, 26624.0, 28288.0, 34304.0, 28288.0, 32128.0, 38656.0, 41216.0, 38656.0, 26624.0, 34304.0, 32128.0, 30208.0, 26624.0, 24960.0, 26624.0, 23424.0, 23424.0, 34304.0, 26624.0, 34304.0, 30208.0, 26624.0, 26624.0, 20736.0, 16128.0, 20736.0, 23424.0, 41216.0, 72192.0, 26624.0, 20736.0, 15168.0, 12544.0, 14272.0, 14272.0, 16128.0, 16128.0, 19456.0, 20736.0, 19456.0, 19456.0, 23424.0, 19456.0, 22016.0, 24960.0, 15168.0, 13376.0, 17152.0, 17152.0, 22016.0, 19456.0, 20736.0, 28288.0, 22016.0, 20736.0, 15168.0, 19456.0, 20736.0, 22016.0, 23424.0, 22016.0, 20736.0, 22016.0, 30208.0, 18304.0, 23424.0, 26624.0, 19456.0, 26624.0, 23424.0, 36352.0, 24960.0, 19456.0, 24960.0, 23424.0, 28288.0, 24960.0, 32128.0, 52992.0, 28288.0, 18304.0, 19456.0, 15168.0, 16128.0, 16128.0, 20736.0, 19456.0, 24960.0, 59904.0, 43776.0, 56320.0, 24960.0, 24960.0, 26624.0, 36352.0, 22016.0, 28288.0, 38656.0, 38656.0, 49664.0, 59904.0, 26624.0, 36352.0, 26624.0, 41216.0, 23424.0, 41216.0, 59904.0, 41216.0, 41216.0, 46592.0, 46592.0, 36352.0, 41216.0, 32128.0, 24960.0, 30208.0, 22016.0, 32128.0, 20736.0, 30208.0, 23424.0, 28288.0, 30208.0, 28288.0, 43776.0, 30208.0, 28288.0, 34304.0, 32128.0, 46592.0, 36352.0, 30208.0, 36352.0, 17152.0, 18304.0, 22016.0, 34304.0, 22016.0, 30208.0, 41216.0, 68096.0, 36352.0, 59904.0, 30208.0, 34304.0, 49664.0, 23424.0, 34304.0, 22016.0, 38656.0, 34304.0, 49664.0, 63744.0, 63744.0, 28288.0, 34304.0, 24960.0, 19456.0, 38656.0, 41216.0, 36352.0, 46592.0, 59904.0, 36352.0, 34304.0, 32128.0, 28288.0, 36352.0, 46592.0, 36352.0, 36352.0, 41216.0, 38656.0, 46592.0, 52992.0, 38656.0, 38656.0, 63744.0, 26624.0, 23424.0, 34304.0, 38656.0, 49664.0, 26624.0, 49664.0, 41216.0, 30208.0, 30208.0, 20736.0, 20736.0, 28288.0, 24960.0, 23424.0, 34304.0, 30208.0, 20736.0, 19456.0, 19456.0, 23424.0, 30208.0, 34304.0, 36352.0, 46592.0, 41216.0, 105472.0, 14272.0, 12544.0, 11840.0, 12544.0, 10432.0, 13376.0, 11840.0, 11840.0, 12544.0, 11840.0, 13376.0, 16128.0, 13376.0, 20736.0, 15168.0, 24960.0, 87040.0, 30208.0, 26624.0, 32128.0, 153600.0, 323584.0, 196608.0, 144384.0, 153600.0, 174080.0, 23424.0, 16128.0, 19456.0, 16128.0, 14272.0, 19456.0, 17152.0, 22016.0, 30208.0, 22016.0, 43776.0, 32128.0, 28288.0, 32128.0, 32128.0, 41216.0, 63744.0, 87040.0, 49664.0, 36352.0, 43776.0, 30208.0, 36352.0, 24960.0, 20736.0, 22016.0, 23424.0, 36352.0, 38656.0, 34304.0, 76800.0, 28288.0, 43776.0, 18304.0, 23424.0, 32128.0, 237568.0, 223232.0, 112128.0, 119296.0, 162816.0, 135168.0, 92672.0, 59904.0, 135168.0, 209920.0, 98816.0, 98816.0, 81920.0, 87040.0, 92672.0, 87040.0, 63744.0, 87040.0, 87040.0, 286720.0, 237568.0, 778240.0, 162816.0, 135168.0, 92672.0, 153600.0, 237568.0, 135168.0, 144384.0, 56320.0, 237568.0, 237568.0, 34304.0, 72192.0, 729088.0, 1368064.0, 1368064.0, 3489792.0, 2719744.0, 1204224.0, 471040.0, 501760.0, 391168.0, 286720.0, 366592.0, 729088.0, 536576.0, 1204224.0, 252928.0, 209920.0, 237568.0, 223232.0, 223232.0, 305152.0, 305152.0, 162816.0, 105472.0, 135168.0, 196608.0, 76800.0, 87040.0, 144384.0, 184320.0, 237568.0, 81920.0, 68096.0, 41216.0, 28288.0, 63744.0, 98816.0, 59904.0, 119296.0, 59904.0, 87040.0, 56320.0, 92672.0, 119296.0, 59904.0, 92672.0, 87040.0, 26624.0, 34304.0, 34304.0, 28288.0, 56320.0, 92672.0, 52992.0, 43776.0, 46592.0, 126976.0, 119296.0, 43776.0, 81920.0, 81920.0, 72192.0, 153600.0, 52992.0, 59904.0, 52992.0, 81920.0, 144384.0, 144384.0, 174080.0, 119296.0, 144384.0, 153600.0, 98816.0, 174080.0, 105472.0, 112128.0, 92672.0, 72192.0, 59904.0, 59904.0, 26624.0, 26624.0, 32128.0, 34304.0, 38656.0, 41216.0, 76800.0, 153600.0, 112128.0, 135168.0, 76800.0, 38656.0, 24960.0, 46592.0, 46592.0, 68096.0, 59904.0, 98816.0, 63744.0, 63744.0, 49664.0, 43776.0, 43776.0, 23424.0, 105472.0, 81920.0, 34304.0, 38656.0, 98816.0, 153600.0, 98816.0, 135168.0, 119296.0, 105472.0, 46592.0, 63744.0, 119296.0, 153600.0, 87040.0, 63744.0, 63744.0, 119296.0, 471040.0, 286720.0, 223232.0, 196608.0, 174080.0, 153600.0, 135168.0, 209920.0, 252928.0, 153600.0, 126976.0, 119296.0, 72192.0, 76800.0, 52992.0, 56320.0, 34304.0, 36352.0, 49664.0, 59904.0, 46592.0, 36352.0, 46592.0, 63744.0, 43776.0, 30208.0, 52992.0, 81920.0, 63744.0, 63744.0, 56320.0, 59904.0, 72192.0, 52992.0, 68096.0, 68096.0, 68096.0, 98816.0, 126976.0, 92672.0, 98816.0, 59904.0, 49664.0, 32128.0, 34304.0, 72192.0, 196608.0, 174080.0, 98816.0, 87040.0, 76800.0, 43776.0, 43776.0, 56320.0, 49664.0, 72192.0, 98816.0, 59904.0, 56320.0, 105472.0, 46592.0, 59904.0, 72192.0, 153600.0, 36352.0, 41216.0, 119296.0, 162816.0, 63744.0, 41216.0, 56320.0, 153600.0, 444416.0, 444416.0, 444416.0, 323584.0, 209920.0, 223232.0, 536576.0, 647168.0, 391168.0, 237568.0, 153600.0, 286720.0, 252928.0, 209920.0, 366592.0, 196608.0, 184320.0, 391168.0, 346112.0, 501760.0, 323584.0, 366592.0, 223232.0, 223232.0, 366592.0, 346112.0, 209920.0, 72192.0, 92672.0, 647168.0, 606208.0, 162816.0, 209920.0, 223232.0, 1753088.0, 1368064.0, 1368064.0, 827392.0, 471040.0, 346112.0, 501760.0, 252928.0, 305152.0, 536576.0, 1204224.0, 471040.0, 135168.0, 20736.0, 30208.0, 98816.0, 366592.0, 366592.0, 252928.0, 105472.0, 81920.0, 268288.0, 391168.0, 346112.0, 196608.0, 112128.0, 184320.0, 268288.0, 135168.0, 174080.0, 105472.0, 144384.0, 223232.0, 305152.0, 209920.0, 72192.0, 92672.0, 72192.0, 76800.0, 72192.0, 49664.0, 87040.0, 98816.0, 98816.0, 87040.0, 135168.0, 68096.0, 63744.0, 135168.0, 76800.0, 119296.0, 98816.0, 119296.0, 87040.0, 105472.0, 126976.0, 305152.0, 1130496.0, 471040.0, 391168.0, 346112.0, 223232.0, 144384.0, 92672.0, 471040.0, 209920.0, 286720.0, 647168.0, 647168.0, 569344.0, 606208.0, 305152.0, 76800.0, 43776.0, 68096.0, 144384.0, 268288.0, 209920.0, 162816.0, 112128.0, 153600.0, 237568.0, 119296.0, 135168.0, 144384.0, 162816.0, 366592.0, 391168.0, 778240.0, 471040.0, 268288.0, 223232.0, 536576.0, 501760.0, 184320.0, 444416.0, 444416.0, 471040.0, 305152.0, 606208.0, 366592.0, 471040.0, 126976.0, 144384.0, 126976.0, 153600.0, 72192.0, 162816.0, 126976.0, 112128.0, 268288.0, 209920.0, 223232.0, 135168.0, 98816.0, 49664.0, 76800.0, 112128.0, 174080.0, 153600.0, 237568.0, 153600.0, 119296.0, 162816.0, 76800.0, 63744.0, 63744.0, 63744.0, 56320.0, 81920.0, 34304.0, 19456.0, 72192.0, 4489216.0, 3948544.0, 999424.0, 880640.0, 223232.0, 196608.0, 196608.0, 252928.0, 237568.0, 174080.0, 144384.0, 153600.0, 1867776.0, 569344.0, 237568.0, 252928.0, 305152.0, 647168.0, 112128.0, 72192.0, 72192.0, 72192.0, 1458176.0, 1286144.0, 688128.0, 729088.0, 471040.0, 305152.0, 366592.0, 92672.0, 2555904.0, 4784128.0, 1646592.0, 827392.0, 471040.0, 569344.0, 366592.0, 366592.0, 471040.0, 999424.0, 471040.0, 536576.0, 536576.0, 237568.0, 305152.0, 366592.0, 606208.0, 162816.0, 119296.0, 81920.0, 126976.0, 223232.0, 323584.0, 223232.0, 688128.0, 162816.0, 72192.0, 1204224.0, 1064960.0, 880640.0, 1130496.0, 647168.0, 536576.0, 391168.0, 119296.0, 162816.0, 126976.0, 252928.0, 1368064.0, 323584.0, 196608.0, 346112.0, 98816.0, 209920.0, 366592.0, 286720.0, 536576.0, 501760.0, 444416.0, 1064960.0, 999424.0, 1064960.0, 1368064.0, 268288.0, 87040.0, 81920.0, 105472.0, 87040.0, 174080.0, 119296.0, 2555904.0, 1286144.0, 32128.0, 41216.0, 46592.0, 162816.0, 223232.0, 237568.0, 346112.0, 346112.0, 999424.0, 1458176.0, 471040.0, 153600.0, 237568.0, 162816.0, 444416.0, 536576.0, 415744.0, 569344.0, 415744.0, 569344.0, 415744.0, 729088.0, 471040.0, 1867776.0, 827392.0, 2392064.0, 729088.0, 647168.0, 778240.0, 1204224.0, 880640.0, 606208.0, 223232.0, 196608.0, 98816.0, 126976.0, 252928.0, 119296.0, 268288.0, 286720.0, 415744.0, 237568.0, 252928.0, 346112.0, 237568.0, 444416.0, 471040.0, 391168.0, 471040.0, 688128.0, 688128.0, 501760.0, 268288.0, 184320.0, 346112.0, 415744.0, 268288.0, 286720.0, 729088.0, 827392.0, 1990656.0, 1064960.0, 937984.0, 2113536.0, 1130496.0, 880640.0, 1064960.0, 1458176.0, 1130496.0, 1064960.0, 569344.0, 252928.0, 366592.0, 135168.0, 144384.0, 286720.0, 153600.0, 305152.0, 286720.0, 209920.0, 688128.0, 606208.0, 346112.0, 223232.0, 366592.0, 366592.0, 827392.0, 729088.0, 471040.0, 471040.0, 268288.0, 323584.0, 688128.0, 880640.0, 688128.0, 391168.0, 391168.0, 153600.0, 323584.0, 778240.0, 569344.0, 536576.0, 536576.0, 305152.0, 184320.0, 237568.0, 223232.0, 126976.0, 112128.0, 184320.0, 366592.0, 880640.0, 606208.0, 126976.0, 268288.0, 305152.0, 305152.0, 184320.0, 174080.0, 223232.0, 174080.0, 196608.0, 444416.0, 536576.0, 162816.0, 81920.0, 112128.0, 144384.0, 174080.0, 323584.0, 415744.0, 471040.0, 688128.0, 501760.0, 471040.0, 569344.0, 252928.0, 209920.0, 729088.0, 1867776.0, 1646592.0, 5079040.0, 65798144.0, 139460608.0, 58195968.0, 12976128.0, 3489792.0, 1867776.0, 2392064.0, 1867776.0, 1368064.0, 729088.0, 471040.0, 346112.0, 323584.0, 536576.0, 237568.0, 827392.0, 606208.0, 252928.0, 536576.0, 1064960.0, 778240.0, 268288.0, 162816.0, 237568.0, 647168.0, 606208.0, 471040.0, 415744.0, 501760.0, 305152.0, 268288.0, 184320.0, 2719744.0, 5079040.0, 3948544.0, 3948544.0, 569344.0, 237568.0, 144384.0, 119296.0, 223232.0, 305152.0, 444416.0, 366592.0, 729088.0, 536576.0, 391168.0, 323584.0, 415744.0, 323584.0, 569344.0, 252928.0, 153600.0, 126976.0, 76800.0, 162816.0, 98816.0, 98816.0, 126976.0, 184320.0, 237568.0, 937984.0, 688128.0, 688128.0, 444416.0, 286720.0, 305152.0, 346112.0, 252928.0, 647168.0, 1368064.0, 647168.0, 366592.0, 391168.0, 606208.0, 536576.0, 366592.0, 778240.0, 471040.0, 237568.0, 391168.0, 323584.0, 305152.0, 252928.0, 501760.0, 223232.0, 112128.0, 135168.0, 346112.0, 184320.0, 92672.0, 174080.0, 196608.0, 346112.0, 268288.0, 323584.0, 196608.0, 135168.0, 415744.0, 1646592.0, 1204224.0, 536576.0, 1064960.0, 999424.0, 153600.0, 72192.0, 196608.0, 184320.0, 174080.0, 346112.0, 647168.0, 501760.0, 184320.0, 209920.0, 323584.0, 252928.0, 268288.0, 184320.0, 162816.0, 223232.0, 2555904.0, 1064960.0, 366592.0, 366592.0, 391168.0, 536576.0, 444416.0, 415744.0, 606208.0, 366592.0, 237568.0, 444416.0, 444416.0, 778240.0, 444416.0, 305152.0, 252928.0, 346112.0, 144384.0, 126976.0, 305152.0, 237568.0, 184320.0, 196608.0, 112128.0, 126976.0, 126976.0, 174080.0, 252928.0, 286720.0, 153600.0, 501760.0, 209920.0, 68096.0, 135168.0, 105472.0, 184320.0, 471040.0, 647168.0, 184320.0, 305152.0, 305152.0, 268288.0, 119296.0, 126976.0, 174080.0, 223232.0, 162816.0, 237568.0, 8912896.0, 444416.0, 471040.0, 126976.0, 112128.0, 268288.0, 268288.0, 112128.0, 196608.0, 286720.0, 501760.0, 252928.0, 135168.0, 286720.0, 252928.0, 14272.0, 10432.0, 14272.0, 13376.0, 11840.0, 12544.0, 20736.0, 24960.0, 20736.0, 52992.0, 81920.0, 46592.0, 43776.0, 24960.0, 34304.0, 38656.0, 41216.0, 56320.0, 81920.0, 59904.0, 41216.0, 38656.0, 59904.0, 41216.0, 34304.0, 184320.0, 144384.0, 126976.0, 98816.0, 87040.0, 52992.0, 68096.0, 87040.0, 112128.0, 126976.0, 162816.0, 223232.0, 126976.0, 135168.0, 135168.0, 144384.0, 112128.0, 119296.0, 81920.0, 72192.0, 76800.0, 92672.0, 174080.0, 126976.0, 87040.0, 72192.0, 59904.0, 323584.0, 501760.0, 268288.0, 112128.0, 126976.0, 119296.0, 119296.0, 98816.0, 144384.0, 87040.0, 98816.0, 72192.0, 98816.0, 286720.0, 1867776.0, 1646592.0, 1064960.0, 688128.0, 688128.0, 444416.0, 366592.0, 366592.0, 346112.0, 286720.0, 237568.0]","[0.0, 0.019210657104849815, 0.0017830277793109417, 0.0015060240402817726, 0.0019132293527945876, 0.001505268388427794, 0.0020473659969866276, 0.001327580539509654, 0.0010608597658574581, 0.0014557670801877975, 0.002120299031957984, 0.0015050166985020041, 0.0013939224882051349, 0.0011754169827327132, 0.00038824183866381645, 5.580045763053931e-05, 0.0008272667182609439, 0.0016722407890483737, 0.0005562663427554071, 0.0013756671687588096, 0.0021149886306375265, 0.0010556142078712583, 0.0010536238551139832, 0.0013862703926861286, 0.0012125888606533408, 0.0009467587224207819, 0.0014968400355428457, 0.002519455971196294, 0.001823405851610005, 0.001548244385048747, 0.0015554691199213266, 0.00027668639086186886, 0.0011096931993961334, 0.00204307003878057, 0.0010622239205986261, 0.001340407645329833, 0.001508211367763579, 0.0006127109518274665, 0.002209090394899249, 0.0006714038318023086, 0.0007755373371765018, 0.0013311885995790362, 0.0013296399265527725, 0.0014580528950318694, 0.0020564694423228502, 0.001736889244057238, 0.001954215345904231, 0.0007758382125757635, 0.00022555542818736285, 0.00038766127545386553, 0.0003331482585053891, 0.00044667781912721694, 0.000613496929872781, 0.0014631401281803846, 0.001380910282023251, 0.0004462293582037091, 0.0006104666972532868, 0.000111141984234564, 0.0005556790274567902, 0.00033132696989923716, 0.0010059238411486149, 0.0006126085645519197, 0.00016747612971812487, 0.00016642628179397434, 5.5809799960115924e-05, 0.00016566348494961858, 0.0001107603675336577, 0.00016653713828418404, 0.00011142682342324406, 0.0020081440452486277, 5.556481482926756e-05, 0.0003332037595100701, 0.0011642734752967954, 0.0017208837671205401, 0.0016097696498036385, 0.0017868110444396734, 0.0016614055493846536, 0.0012170161353424191, 0.0006682630628347397, 0.0016066482057794929, 0.0006703536491841078, 0.00027670172858051956, 0.0007768283248879015, 0.0005525777814909816, 0.0016190264141187072, 0.0022937064059078693, 0.0013885803055018187, 0.0016078061889857054, 0.002161383396014571, 0.0016583747928962111, 0.0014943546848371625, 0.0023539960384368896, 0.002218401525169611, 0.0020698143634945154, 0.0016825575148686767, 0.0012123215710744262, 0.0014299857430160046, 0.0003353079373482615, 0.0007837429293431342, 0.0006682258099317551, 0.0008919115061871707, 0.0007222623098641634, 0.000831209123134613, 0.0007748506031930447, 0.0005567618645727634, 0.00038822030182927847, 0.0008316700113937259, 0.0011659541632980108, 0.00033478406840004027, 0.0003876398259308189, 0.0007251226925291121, 0.0007316524279303849, 0.0008335185702890158, 0.0005024564452469349, 0.0007732670637778938, 0.0013371219392865896, 0.0011041183024644852, 0.001331557985395193, 0.0006113148992881179, 0.0007786862552165985, 0.001001948257908225, 0.001334593747742474, 0.0005584096652455628, 0.0018490502843633294, 0.0011726602679118514, 0.0017213615356013179, 0.0011195074766874313, 0.0017877095378935337, 0.0016855825670063496, 0.0014519462129101157, 0.0010001111077144742, 0.0018335371278226376, 0.001947473851032555, 0.0016124547692015767, 0.0010618678061291575, 0.0018910951912403107, 0.0015538290608674288, 0.002026570728048682, 0.0015679247444495559, 0.0015499584842473269, 0.001158556784503162, 0.0013317795237526298, 0.0016699136467650533, 0.0012273361207917333, 0.0015531395329162478, 0.0020110609475523233, 0.0020933179184794426, 0.0017799532506614923, 0.0016793551621958613, 0.0019611138850450516, 0.0019595767371356487, 0.001779458369128406, 0.0021223120857030153, 0.0015086327912285924, 0.001491218339651823, 0.001956400228664279, 0.0014464533887803555, 0.002506544813513756, 0.002559821819886565, 0.002123498125001788, 0.0015652076108381152, 0.0016610375605523586, 0.0022116554901003838, 0.0016262897988781333, 0.0024229076225310564, 0.002181329997256398, 0.002231146674603224, 0.0021035149693489075, 0.0014995001256465912, 0.002237512031570077, 0.0018941503949463367, 0.001957384869456291, 0.0017816380131989717, 0.00280373846180737, 0.0018387474119663239, 0.003163854358717799, 0.002516778651624918, 0.0021784058772027493, 0.002496255561709404, 0.002915778895840049, 0.0022658193483948708, 0.002168835373595357, 0.0023566377349197865, 0.002280184533447027, 0.0021924893371760845, 0.0022312712389975786, 0.0014848217833787203, 0.0018321119714528322, 0.0019427175866439939, 0.001543294871225953, 0.0019923625513911247, 0.001718117855489254, 0.002277777763083577, 0.0022609462030231953, 0.0019888405222445726, 0.0025718440301716328, 0.0014358294429257512, 0.002214716747403145, 0.0033696505706757307, 0.002219263231381774, 0.002868016017600894, 0.0028896916192024946, 0.0022809456568211317, 0.0018229022389277816, 0.0025832538958638906, 0.0016143397660925984, 0.0020681945607066154, 0.0032150777988135815, 0.0026441910304129124, 0.0017161204013973475, 0.0015479021240025759, 0.0015083799371495843, 0.002175368135794997, 0.0023430963046848774, 0.0017280785832554102, 0.002117581432685256, 0.0025058467872440815, 0.0019369120709598064, 0.0028099173214286566, 0.0022791705559939146, 0.00248015858232975, 0.003202473744750023, 0.0030159172601997852, 0.0033450410701334476, 0.00368139217607677, 0.0037558157928287983, 0.0040445453487336636, 0.004284203983843327, 0.003163854358717799, 0.005601153708994389, 0.002461125375702977, 0.0024546722415834665, 0.00391827616840601, 0.002569258213043213, 0.002774540800601244, 0.0029384044464677572, 0.0025411557871848345, 0.002970186062157154, 0.0039001561235636473, 0.0037288514431566, 0.0036973676178604364, 0.00325203244574368, 0.002950838068500161, 0.0017257696017622948, 0.0025971154682338238, 0.0026693360414355993, 0.003065945813432336, 0.002353072864934802, 0.00284328474663198, 0.003507990390062332, 0.0023683630861341953, 0.003280876437202096, 0.00276319426484406, 0.003976477310061455, 0.0036565097980201244, 0.002729196799919009, 0.003418324515223503, 