last_val_loss,dataset,ul2,causal_denoisers,noncausal_masking,causal_divider,s_divider,r_divider,x_divider,randomize_denoiser_settings,randomize_mask_width,no_special_tokens,alternate_denoisers,progressive_tasks,model_scale,depth,width,num_params,num_non_embedding_params,num_heads,linear_value,seed,run_num,max_epochs,max_steps,max_tokens,max_time_seconds,gpu_capacity_scalar,train_loss_causal,train_pplx_causal,train_acc_causal,train_loss_s,train_pplx_s,train_loss_r,train_pplx_r,train_loss_x,train_pplx_x,train_acc_x_causal,train_acc_r_causal,train_acc_s_causal,train_acc_x_masked,train_acc_r_masked,train_acc_s_masked,val_loss_causal,val_pplx_causal,val_acc_causal,val_loss_s,val_pplx_s,val_loss_r,val_pplx_r,val_loss_x,val_pplx_x,grad_norm,cumulative_time,tokens_seen,epoch,batch_size,seq_length,learning_rate,weight_decay
3.1015625,fineweb,true,true,false,1000.0,1000.0,1.0,1.0,true,true,true,true,false,5.23113258028692,21,1024,240683029,137648149,1,false,1600,1,1.0,1000000000,1000000000000,1000000000,1.9,"[10.9375, 7.0, 6.75, 6.34375, 6.28125, 6.21875, 6.03125, 5.96875, 5.875, 5.78125, 5.8125, 5.84375, 5.65625, 5.5625, 5.5625, 5.4375, 5.4375, 5.34375, 5.4375, 5.34375, 5.375, 5.28125, 5.375, 5.09375, 5.09375, 5.09375, 5.03125, 5.15625, 5.09375, 5.125, 5.03125, 4.90625, 4.9375, 4.96875, 4.90625, 5.0, 4.96875, 4.875, 4.90625, 4.78125, 4.875, 4.8125, 4.90625, 4.8125, 4.71875, 4.75, 4.78125, 4.65625, 4.6875, 4.78125, 4.71875, 4.625, 4.78125, 4.59375, 4.5, 4.5625, 4.53125, 4.59375, 4.59375, 4.59375, 4.5, 4.59375, 4.46875, 4.53125, 4.625, 4.59375, 4.46875, 4.53125, 4.625, 4.40625, 4.59375, 4.53125, 4.46875, 4.46875, 4.46875, 4.4375, 4.40625, 4.40625, 4.40625, 4.40625, 4.34375, 4.40625, 4.40625, 4.375, 4.3125, 4.40625, 4.375, 4.46875, 4.34375, 4.375, 4.3125, 4.28125, 4.375, 4.3125, 4.28125, 4.1875, 4.34375, 4.21875, 4.34375, 4.28125, 4.34375, 4.3125, 4.21875, 4.25, 4.25, 4.15625, 4.125, 4.1875, 4.21875, 4.1875, 4.1875, 4.125, 4.0625, 4.125, 4.03125, 3.953125, 4.125, 4.15625, 4.15625, 4.0625, 4.03125, 4.0, 4.0625, 4.09375, 4.09375, 4.0, 3.921875, 4.0, 4.03125, 4.0625, 3.96875, 3.96875, 3.90625, 4.09375, 4.0, 4.09375, 4.0, 4.0, 4.09375, 3.984375, 3.96875, 3.921875, 3.8125, 4.0625, 3.90625, 4.0, 3.90625, 3.90625, 3.765625, 4.0, 3.984375, 3.84375, 3.96875, 4.0, 3.984375, 3.953125, 3.875, 3.953125, 3.90625, 3.84375, 3.875, 3.78125, 3.75, 3.984375, 3.921875, 3.8125, 3.875, 3.890625, 3.96875, 3.90625, 3.84375, 3.75, 3.859375, 3.703125, 3.765625, 3.765625, 3.859375, 3.8125, 3.765625, 3.796875, 3.875, 3.71875, 3.90625, 3.78125, 3.734375, 3.78125, 3.6875, 3.734375, 3.765625, 3.90625, 3.8125, 3.703125, 3.734375, 3.703125, 3.6875, 3.796875, 3.71875, 3.59375, 3.8125, 3.71875, 3.84375, 3.671875, 3.75, 3.78125, 3.71875, 3.78125, 3.75, 3.765625, 3.8125, 3.640625, 3.84375, 3.75, 3.625, 3.703125, 3.734375, 3.796875, 3.71875, 3.6875, 3.640625, 3.59375, 3.75, 3.671875, 3.75, 3.859375, 3.671875, 3.609375, 3.671875, 3.625, 3.65625, 3.75, 3.6875, 3.671875, 3.59375, 3.640625, 3.75, 3.609375, 3.59375, 3.625, 3.625, 3.640625, 3.609375, 3.5625, 3.671875, 3.703125, 3.65625, 3.65625, 3.609375, 3.671875, 3.671875, 3.765625, 3.640625, 3.625, 3.65625, 3.671875, 3.65625, 3.640625, 3.640625, 3.59375, 3.578125, 3.6875, 3.5625, 3.515625, 3.625, 3.609375, 3.625, 3.59375, 3.5625, 3.609375, 3.484375, 3.5625, 3.6875, 3.59375, 3.5625, 3.625, 3.59375, 3.578125, 3.578125, 3.59375, 3.515625, 3.59375, 3.578125, 3.5625, 3.453125, 3.515625, 3.671875, 3.5, 3.609375, 3.5, 3.53125, 3.546875, 3.53125, 3.59375, 3.65625, 3.59375, 3.6875, 3.59375, 3.671875, 3.484375, 3.484375, 3.578125, 3.46875, 3.390625, 3.375, 3.46875, 3.609375, 3.53125, 3.453125, 3.515625, 3.59375, 3.578125, 3.5625, 3.5625, 3.453125, 3.453125, 3.53125, 3.5, 3.578125, 3.53125, 3.4375, 3.53125, 3.640625, 3.5625, 3.53125, 3.484375, 3.5625, 3.421875, 3.375, 3.53125, 3.546875, 3.421875, 3.5, 3.53125, 3.546875, 3.46875, 3.5625, 3.421875, 3.546875, 3.421875, 3.546875, 3.5, 3.59375, 3.4375, 3.515625, 3.53125, 3.5, 3.5, 3.515625, 3.3125, 3.484375, 3.484375, 3.5, 3.484375, 3.390625, 3.421875, 3.390625, 3.46875, 3.28125, 3.484375, 3.3125, 3.453125, 3.453125, 3.59375, 3.453125, 3.453125, 3.5, 3.4375, 3.53125, 3.53125, 3.4375, 3.53125, 3.453125, 3.46875, 3.46875, 3.4375, 3.296875, 3.59375, 3.546875, 3.375, 3.515625, 3.375, 3.390625, 3.375, 3.375, 3.390625, 3.40625, 3.375, 3.453125, 3.34375, 3.4375, 3.4375, 3.453125, 3.40625, 3.46875, 3.5, 3.421875, 3.453125, 3.484375, 3.515625, 3.484375, 3.4375, 3.421875, 3.390625, 3.453125, 3.4375, 3.4375, 3.40625, 3.359375, 3.359375, 3.453125, 3.46875, 3.40625, 3.40625, 3.296875, 3.484375, 3.34375, 3.328125, 3.40625, 3.4375, 3.453125, 3.40625, 3.390625, 3.46875, 3.328125, 3.375, 3.34375, 3.53125, 3.375, 3.46875, 3.359375, 3.484375, 3.40625, 3.421875, 3.3125, 3.296875, 3.4375, 3.40625, 3.359375, 3.375, 3.390625, 3.4375, 3.265625, 3.546875, 3.34375, 3.34375, 3.375, 3.34375, 3.421875, 3.359375, 3.421875, 3.40625, 3.28125, 3.296875, 3.40625, 3.390625, 3.40625, 3.375, 3.328125, 3.34375, 3.28125, 3.265625, 3.359375, 3.328125, 3.46875, 3.359375, 3.390625, 3.296875, 3.28125, 3.34375, 3.359375, 3.265625, 3.375, 3.34375, 3.40625, 3.453125, 3.359375, 3.359375, 3.328125, 3.328125, 3.25, 3.28125, 3.3125, 3.40625, 3.359375, 3.296875, 3.421875, 3.421875, 3.34375, 3.34375, 3.234375, 3.3125, 3.328125, 3.296875, 3.34375, 3.203125, 3.296875, 3.328125, 3.34375, 3.375, 3.4375, 3.28125, 3.375, 3.34375, 3.265625, 3.515625, 3.265625, 3.34375, 3.359375, 3.40625, 3.328125, 3.328125, 3.359375, 3.5, 3.3125, 3.484375, 3.328125, 3.328125, 3.40625, 3.296875, 3.328125, 3.3125, 3.3125, 3.4375, 3.234375, 3.359375, 3.296875, 3.390625, 3.359375, 3.390625, 3.40625, 3.375, 3.421875, 3.390625, 3.421875, 3.265625, 3.28125, 3.296875, 3.453125, 3.40625, 3.25, 3.40625, 3.25, 3.359375, 3.265625, 3.390625, 3.3125, 3.40625, 3.28125, 3.421875, 3.296875, 3.171875, 3.25, 3.28125, 3.3125, 3.34375, 3.1875, 3.265625, 3.265625, 3.328125, 3.296875, 3.375, 3.359375, 3.203125, 3.296875, 3.234375, 3.359375, 3.21875, 3.296875, 3.375, 3.203125, 3.34375, 3.390625, 3.21875, 3.3125, 3.25, 3.296875, 3.421875, 3.28125, 3.359375, 3.359375, 3.40625, 3.28125, 3.4375, 3.328125, 3.375, 3.21875, 3.484375, 3.28125, 3.296875, 3.1875, 3.21875, 3.171875, 3.328125, 3.109375, 3.171875, 3.25, 3.203125, 3.359375, 3.3125, 3.25, 3.28125, 3.421875, 3.125, 3.171875, 3.328125, 3.34375, 3.296875, 3.21875, 3.265625, 3.21875, 3.265625, 3.296875, 3.21875, 3.359375, 3.125, 3.265625, 3.25, 3.296875, 3.28125, 3.265625, 3.296875, 3.21875, 3.265625, 3.234375, 3.296875, 3.296875, 3.25, 3.296875, 3.296875, 3.28125, 3.28125, 3.171875, 3.234375, 3.1875, 3.28125, 3.375, 3.34375, 3.140625, 3.1875, 3.265625, 3.203125, 3.234375, 3.265625, 3.265625, 3.171875, 3.140625, 3.203125, 3.3125, 3.1875, 3.265625, 3.21875, 3.1875, 3.15625, 3.1875, 3.34375, 3.265625, 3.265625, 3.3125, 3.28125, 3.265625, 3.21875, 3.3125, 3.40625, 3.21875, 3.359375, 3.265625, 3.28125, 3.21875, 3.28125, 3.3125, 3.21875, 3.234375, 3.34375, 3.203125, 3.28125, 3.265625, 3.140625, 3.203125, 3.375, 3.234375, 3.21875, 3.203125, 3.3125, 3.234375, 3.234375, 3.234375, 3.265625, 3.3125, 3.28125, 3.125, 3.3125, 3.34375, 3.265625, 3.21875, 3.234375, 3.15625, 3.1875, 3.203125, 3.21875, 3.328125, 3.3125, 3.21875, 3.234375, 3.265625, 3.15625, 3.28125, 3.265625, 3.234375, 3.15625, 3.28125, 3.296875, 3.296875, 3.265625, 3.203125, 3.265625, 3.125, 3.1875, 3.296875, 3.1875, 3.265625, 3.25, 3.265625, 3.28125, 3.28125, 3.359375, 3.09375, 3.3125, 3.140625, 3.203125, 3.15625, 3.046875, 3.265625, 3.203125, 3.25, 3.21875, 3.3125, 3.21875, 3.234375, 3.234375, 3.234375, 3.234375, 3.140625, 3.21875, 3.296875, 3.15625, 3.234375, 3.203125, 3.15625, 3.171875, 3.28125, 3.15625, 3.1875, 3.203125, 3.203125, 3.25, 3.203125, 3.15625, 3.015625, 3.171875, 3.203125, 3.171875, 3.234375, 3.125, 3.25, 3.21875, 3.140625, 3.265625, 3.1875, 3.25, 3.21875, 3.203125, 3.1875, 3.3125, 3.28125, 3.265625, 3.171875, 3.234375, 3.1875, 3.1875, 3.171875, 3.359375, 3.125, 3.078125, 3.1875, 3.359375, 3.15625, 3.171875, 3.234375, 3.1875, 3.28125, 3.1875, 3.375, 3.234375, 3.015625, 3.265625, 3.09375, 3.140625, 3.15625, 3.09375, 3.109375, 3.21875, 3.234375, 3.0625, 3.171875, 3.171875, 3.21875, 3.140625, 3.21875, 3.140625, 3.109375, 3.265625, 3.25, 3.109375, 3.171875, 3.171875, 3.21875, 3.15625, 3.234375, 3.1875, 3.015625, 3.125, 3.140625, 3.25, 3.109375, 3.203125, 3.265625, 3.1875, 3.15625, 3.171875, 3.1875, 3.171875, 3.1875, 3.125, 3.25, 3.15625, 3.15625, 3.203125, 3.125, 3.0625, 3.171875, 3.078125, 3.125, 3.15625, 3.140625, 3.265625, 3.140625, 3.203125, 3.234375, 3.15625, 3.171875, 3.3125, 3.21875, 3.265625, 3.28125, 3.1875, 3.09375, 3.21875, 3.109375, 3.109375, 3.203125, 3.171875, 3.171875, 3.171875, 3.234375, 3.109375, 3.125, 3.109375, 3.109375, 3.28125, 3.1875, 3.1875, 3.125, 3.125, 3.109375, 3.15625, 3.234375, 3.109375, 3.1875, 3.140625, 3.140625, 3.140625, 3.21875, 3.21875, 3.125, 3.1875, 3.15625, 3.25, 3.234375, 3.09375, 3.078125, 3.0625, 3.09375, 3.15625, 3.21875, 3.25, 3.140625, 3.140625, 3.15625, 3.09375, 3.140625, 3.15625, 3.09375, 3.296875, 3.203125, 3.1875, 3.125, 3.109375, 3.15625, 3.03125, 3.125, 3.203125, 3.171875, 3.15625, 3.21875, 3.140625, 3.046875, 3.140625, 3.140625, 3.171875, 3.125, 3.1875, 3.203125, 3.140625, 3.203125, 3.21875, 3.140625, 3.265625, 3.171875, 3.078125, 3.09375, 3.125, 3.171875, 3.109375, 3.078125, 3.15625, 3.0625, 3.125, 3.171875, 3.109375, 3.09375, 3.140625, 3.21875, 3.140625, 3.078125, 3.09375, 3.203125, 3.140625, 3.171875, 3.140625, 3.265625, 3.171875, 3.296875, 3.171875, 3.125, 3.140625, 3.09375, 3.140625, 3.046875, 2.984375, 3.109375, 3.140625, 3.234375, 3.25, 3.09375, 3.109375, 3.0625, 3.03125, 3.09375, 3.09375, 3.203125, 3.171875, 3.140625, 3.140625, 3.25, 3.0, 3.109375, 3.25, 3.0625, 3.078125, 3.046875, 3.140625, 2.96875, 3.125, 3.140625, 3.09375, 3.09375, 3.109375, 3.0625, 3.125, 3.078125, 3.1875, 3.109375, 3.140625, 3.140625, 3.109375, 3.0625, 3.046875, 3.03125, 3.09375, 3.1875, 3.15625, 3.171875, 3.140625, 3.078125, 3.0625, 3.171875, 3.015625, 3.171875, 3.109375, 3.140625, 3.109375, 3.140625, 3.171875, 3.125, 3.171875, 3.171875, 3.125, 3.046875, 3.21875, 3.140625, 3.1875, 3.09375, 3.0625, 3.078125, 3.09375, 3.15625, 3.0625, 3.03125, 3.078125, 3.046875, 3.046875, 3.0625, 3.0625, 3.15625, 2.96875, 3.140625, 3.0625, 3.1875, 3.125, 3.109375, 3.125, 3.109375, 3.1875, 3.09375, 3.15625, 3.09375, 3.03125, 3.09375, 2.9375, 3.125, 3.140625, 3.078125, 3.109375, 3.015625, 3.1875, 3.125, 3.09375, 3.078125, 3.09375, 3.109375, 3.125, 3.21875, 3.03125, 3.046875, 3.015625, 2.984375, 3.15625, 3.015625, 3.0, 2.984375, 3.078125, 3.046875, 3.125, 3.0625, 3.140625, 3.03125, 3.140625, 3.078125, 3.046875, 3.109375, 3.0, 3.109375, 3.109375, 2.953125, 3.15625, 3.109375, 3.109375, 3.09375, 3.03125, 2.9375, 3.125, 3.0, 3.015625, 3.046875, 3.078125, 3.046875, 3.140625, 3.03125, 3.140625, 3.109375, 3.125, 3.140625, 3.09375, 3.03125, 2.953125, 2.96875, 3.078125, 3.0625, 3.140625, 2.953125, 3.09375, 3.015625, 3.0625, 2.9375, 3.015625, 3.03125, 3.015625, 2.984375, 3.140625, 3.015625, 2.953125, 3.125, 2.953125, 3.0, 3.0, 3.03125, 2.90625, 3.046875, 3.046875, 3.046875, 3.125, 3.046875, 3.015625, 2.953125, 3.015625, 2.984375, 3.09375, 3.015625, 2.9375, 2.96875, 3.0, 3.0, 3.0, 3.078125, 2.984375, 3.046875, 2.9375, 3.09375, 2.9375, 3.09375, 2.953125, 3.015625, 3.0, 3.0625, 2.984375, 2.921875, 3.0, 3.015625, 3.125, 2.953125]","[56320.0, 1096.0, 856.0, 568.0, 536.0, 502.0, 416.0, 392.0, 356.0, 324.0, 334.0, 346.0, 286.0, 260.0, 260.0, 230.0, 230.0, 209.0, 230.0, 209.0, 216.0, 197.0, 216.0, 163.0, 163.0, 163.0, 153.0, 174.0, 163.0, 168.0, 153.0, 135.0, 140.0, 144.0, 135.0, 149.0, 144.0, 131.0, 135.0, 119.5, 131.0, 123.0, 135.0, 123.0, 112.0, 115.5, 119.5, 105.5, 108.5, 119.5, 112.0, 102.0, 119.5, 99.0, 90.0, 96.0, 93.0, 99.0, 99.0, 99.0, 90.0, 99.0, 87.5, 93.0, 102.0, 99.0, 87.5, 93.0, 102.0, 82.0, 99.0, 93.0, 87.5, 87.5, 87.5, 84.5, 82.0, 82.0, 82.0, 82.0, 77.0, 82.0, 82.0, 79.5, 74.5, 82.0, 79.5, 87.5, 77.0, 79.5, 74.5, 72.5, 79.5, 74.5, 72.5, 66.0, 77.0, 68.0, 77.0, 72.5, 77.0, 74.5, 68.0, 70.0, 70.0, 64.0, 62.0, 66.0, 68.0, 66.0, 66.0, 62.0, 58.25, 62.0, 56.25, 52.25, 62.0, 64.0, 64.0, 58.25, 56.25, 54.75, 58.25, 60.0, 60.0, 54.75, 50.5, 54.75, 56.25, 58.25, 53.0, 53.0, 49.75, 60.0, 54.75, 60.0, 54.75, 54.75, 60.0, 53.75, 53.0, 50.5, 45.25, 58.25, 49.75, 54.75, 49.75, 49.75, 43.25, 54.75, 53.75, 46.75, 53.0, 54.75, 53.75, 52.25, 48.25, 52.25, 49.75, 46.75, 48.25, 44.0, 42.5, 53.75, 50.5, 45.25, 48.25, 49.0, 53.0, 49.75, 46.75, 42.5, 47.5, 40.5, 43.25, 43.25, 47.5, 45.25, 43.25, 44.5, 48.25, 41.25, 49.75, 44.0, 42.0, 44.0, 40.0, 42.0, 43.25, 49.75, 45.25, 40.5, 42.0, 40.5, 40.0, 44.5, 41.25, 36.5, 45.25, 41.25, 46.75, 39.25, 42.5, 44.0, 41.25, 44.0, 42.5, 43.25, 45.25, 38.25, 46.75, 42.5, 37.5, 40.5, 42.0, 44.5, 41.25, 40.0, 38.25, 36.5, 42.5, 39.25, 42.5, 47.5, 39.25, 37.0, 39.25, 37.5, 38.75, 42.5, 40.0, 39.25, 36.5, 38.25, 42.5, 37.0, 36.5, 37.5, 37.5, 38.25, 37.0, 35.25, 39.25, 40.5, 38.75, 38.75, 37.0, 39.25, 39.25, 43.25, 38.25, 37.5, 38.75, 39.25, 38.75, 38.25, 38.25, 36.5, 35.75, 40.0, 35.25, 33.75, 37.5, 37.0, 37.5, 36.5, 35.25, 37.0, 32.5, 35.25, 40.0, 36.5, 35.25, 37.5, 36.5, 35.75, 35.75, 36.5, 33.75, 36.5, 35.75, 35.25, 31.625, 33.75, 39.25, 33.25, 37.0, 33.25, 34.25, 34.75, 34.25, 36.5, 38.75, 36.5, 40.0, 36.5, 39.25, 32.5, 32.5, 35.75, 32.0, 29.75, 29.25, 32.0, 37.0, 34.25, 31.625, 33.75, 36.5, 35.75, 35.25, 35.25, 31.625, 31.625, 34.25, 33.25, 35.75, 34.25, 31.125, 34.25, 38.25, 35.25, 34.25, 32.5, 35.25, 30.625, 29.25, 34.25, 34.75, 30.625, 33.25, 34.25, 34.75, 32.0, 35.25, 30.625, 34.75, 30.625, 34.75, 33.25, 36.5, 31.125, 33.75, 34.25, 33.25, 33.25, 33.75, 27.5, 32.5, 32.5, 33.25, 32.5, 29.75, 30.625, 29.75, 32.0, 26.625, 32.5, 27.5, 31.625, 31.625, 36.5, 31.625, 31.625, 33.25, 31.125, 34.25, 34.25, 31.125, 34.25, 31.625, 32.0, 32.0, 31.125, 27.0, 36.5, 34.75, 29.25, 33.75, 29.25, 29.75, 29.25, 29.25, 29.75, 30.125, 29.25, 31.625, 28.375, 31.125, 31.125, 31.625, 30.125, 32.0, 33.25, 30.625, 31.625, 32.5, 33.75, 32.5, 31.125, 30.625, 29.75, 31.625, 31.125, 31.125, 30.125, 28.75, 28.75, 31.625, 32.0, 30.125, 30.125, 27.0, 32.5, 28.375, 27.875, 30.125, 31.125, 31.625, 30.125, 29.75, 32.0, 27.875, 29.25, 28.375, 34.25, 29.25, 32.0, 28.75, 32.5, 30.125, 30.625, 27.5, 27.0, 31.125, 30.125, 28.75, 29.25, 29.75, 31.125, 26.25, 34.75, 28.375, 28.375, 29.25, 28.375, 30.625, 28.75, 30.625, 30.125, 26.625, 27.0, 30.125, 29.75, 30.125, 29.25, 27.875, 28.375, 26.625, 26.25, 28.75, 27.875, 32.0, 28.75, 29.75, 27.0, 26.625, 28.375, 28.75, 26.25, 29.25, 28.375, 30.125, 31.625, 28.75, 28.75, 27.875, 27.875, 25.75, 26.625, 27.5, 30.125, 28.75, 27.0, 30.625, 30.625, 28.375, 28.375, 25.375, 27.5, 27.875, 27.0, 28.375, 24.625, 27.0, 27.875, 28.375, 29.25, 31.125, 26.625, 29.25, 28.375, 26.25, 33.75, 26.25, 28.375, 28.75, 30.125, 27.875, 27.875, 28.75, 33.25, 27.5, 32.5, 27.875, 27.875, 30.125, 27.0, 27.875, 27.5, 27.5, 31.125, 25.375, 28.75, 27.0, 29.75, 28.75, 29.75, 30.125, 29.25, 30.625, 29.75, 30.625, 26.25, 26.625, 27.0, 31.625, 30.125, 25.75, 30.125, 25.75, 28.75, 26.25, 29.75, 27.5, 30.125, 26.625, 30.625, 27.0, 23.875, 25.75, 26.625, 27.5, 28.375, 24.25, 26.25, 26.25, 27.875, 27.0, 29.25, 28.75, 24.625, 27.0, 25.375, 28.75, 25.0, 27.0, 29.25, 24.625, 28.375, 29.75, 25.0, 27.5, 25.75, 27.0, 30.625, 26.625, 28.75, 28.75, 30.125, 26.625, 31.125, 27.875, 29.25, 25.0, 32.5, 26.625, 27.0, 24.25, 25.0, 23.875, 27.875, 22.375, 23.875, 25.75, 24.625, 28.75, 27.5, 25.75, 26.625, 30.625, 22.75, 23.875, 27.875, 28.375, 27.0, 25.0, 26.25, 25.0, 26.25, 27.0, 25.0, 28.75, 22.75, 26.25, 25.75, 27.0, 26.625, 26.25, 27.0, 25.0, 26.25, 25.375, 27.0, 27.0, 25.75, 27.0, 27.0, 26.625, 26.625, 23.875, 25.375, 24.25, 26.625, 29.25, 28.375, 23.125, 24.25, 26.25, 24.625, 25.375, 26.25, 26.25, 23.875, 23.125, 24.625, 27.5, 24.25, 26.25, 25.0, 24.25, 23.5, 24.25, 28.375, 26.25, 26.25, 27.5, 26.625, 26.25, 25.0, 27.5, 30.125, 25.0, 28.75, 26.25, 26.625, 25.0, 26.625, 27.5, 25.0, 25.375, 28.375, 24.625, 26.625, 26.25, 23.125, 24.625, 29.25, 25.375, 25.0, 24.625, 27.5, 25.375, 25.375, 25.375, 26.25, 27.5, 26.625, 22.75, 27.5, 28.375, 26.25, 25.0, 25.375, 23.5, 24.25, 24.625, 25.0, 27.875, 27.5, 25.0, 25.375, 26.25, 23.5, 26.625, 26.25, 25.375, 23.5, 26.625, 27.0, 27.0, 26.25, 24.625, 26.25, 22.75, 24.25, 27.0, 24.25, 26.25, 25.75, 26.25, 26.625, 26.625, 28.75, 22.125, 27.5, 23.125, 24.625, 23.5, 21.0, 26.25, 24.625, 25.75, 25.0, 27.5, 25.0, 25.375, 25.375, 25.375, 25.375, 23.125, 25.0, 27.0, 23.5, 25.375, 24.625, 23.5, 23.875, 26.625, 23.5, 24.25, 24.625, 24.625, 25.75, 24.625, 23.5, 20.375, 23.875, 24.625, 23.875, 25.375, 22.75, 25.75, 25.0, 23.125, 26.25, 24.25, 25.75, 25.0, 24.625, 24.25, 27.5, 26.625, 26.25, 23.875, 25.375, 24.25, 24.25, 23.875, 28.75, 22.75, 21.75, 24.25, 28.75, 23.5, 23.875, 25.375, 24.25, 26.625, 24.25, 29.25, 25.375, 20.375, 26.25, 22.125, 23.125, 23.5, 22.125, 22.375, 25.0, 25.375, 21.375, 23.875, 23.875, 25.0, 23.125, 25.0, 23.125, 22.375, 26.25, 25.75, 22.375, 23.875, 23.875, 25.0, 23.5, 25.375, 24.25, 20.375, 22.75, 23.125, 25.75, 22.375, 24.625, 26.25, 24.25, 23.5, 23.875, 24.25, 23.875, 24.25, 22.75, 25.75, 23.5, 23.5, 24.625, 22.75, 21.375, 23.875, 21.75, 22.75, 23.5, 23.125, 26.25, 23.125, 24.625, 25.375, 23.5, 23.875, 27.5, 25.0, 26.25, 26.625, 24.25, 22.125, 25.0, 22.375, 22.375, 24.625, 23.875, 23.875, 23.875, 25.375, 22.375, 22.75, 22.375, 22.375, 26.625, 24.25, 24.25, 22.75, 22.75, 22.375, 23.5, 25.375, 22.375, 24.25, 23.125, 23.125, 23.125, 25.0, 25.0, 22.75, 24.25, 23.5, 25.75, 25.375, 22.125, 21.75, 21.375, 22.125, 23.5, 25.0, 25.75, 23.125, 23.125, 23.5, 22.125, 23.125, 23.5, 22.125, 27.0, 24.625, 24.25, 22.75, 22.375, 23.5, 20.75, 22.75, 24.625, 23.875, 23.5, 25.0, 23.125, 21.0, 23.125, 23.125, 23.875, 22.75, 24.25, 24.625, 23.125, 24.625, 25.0, 23.125, 26.25, 23.875, 21.75, 22.125, 22.75, 23.875, 22.375, 21.75, 23.5, 21.375, 22.75, 23.875, 22.375, 22.125, 23.125, 25.0, 23.125, 21.75, 22.125, 24.625, 23.125, 23.875, 23.125, 26.25, 23.875, 27.0, 23.875, 22.75, 23.125, 22.125, 23.125, 21.0, 19.75, 22.375, 23.125, 25.375, 25.75, 22.125, 22.375, 21.375, 20.75, 22.125, 22.125, 24.625, 23.875, 23.125, 23.125, 25.75, 20.125, 22.375, 25.75, 21.375, 21.75, 21.0, 23.125, 19.5, 22.75, 23.125, 22.125, 22.125, 22.375, 21.375, 22.75, 21.75, 24.25, 22.375, 23.125, 23.125, 22.375, 21.375, 21.0, 20.75, 22.125, 24.25, 23.5, 23.875, 23.125, 21.75, 21.375, 23.875, 20.375, 23.875, 22.375, 23.125, 22.375, 23.125, 23.875, 22.75, 23.875, 23.875, 22.75, 21.0, 25.0, 23.125, 24.25, 22.125, 21.375, 21.75, 22.125, 23.5, 21.375, 20.75, 21.75, 21.0, 21.0, 21.375, 21.375, 23.5, 19.5, 23.125, 21.375, 24.25, 22.75, 22.375, 22.75, 22.375, 24.25, 22.125, 23.5, 22.125, 20.75, 22.125, 18.875, 22.75, 23.125, 21.75, 22.375, 20.375, 24.25, 22.75, 22.125, 21.75, 22.125, 22.375, 22.75, 25.0, 20.75, 21.0, 20.375, 19.75, 23.5, 20.375, 20.125, 19.75, 21.75, 21.0, 22.75, 21.375, 23.125, 20.75, 23.125, 21.75, 21.0, 22.375, 20.125, 22.375, 22.375, 19.125, 23.5, 22.375, 22.375, 22.125, 20.75, 18.875, 22.75, 20.125, 20.375, 21.0, 21.75, 21.0, 23.125, 20.75, 23.125, 22.375, 22.75, 23.125, 22.125, 20.75, 19.125, 19.5, 21.75, 21.375, 23.125, 19.125, 22.125, 20.375, 21.375, 18.875, 20.375, 20.75, 20.375, 19.75, 23.125, 20.375, 19.125, 22.75, 19.125, 20.125, 20.125, 20.75, 18.25, 21.0, 21.0, 21.0, 22.75, 21.0, 20.375, 19.125, 20.375, 19.75, 22.125, 20.375, 18.875, 19.5, 20.125, 20.125, 20.125, 21.75, 19.75, 21.0, 18.875, 22.125, 18.875, 22.125, 19.125, 20.375, 20.125, 21.375, 19.75, 18.625, 20.125, 20.375, 22.75, 19.125]","[1.6551906810491346e-05, 0.08474576473236084, 0.09027410298585892, 0.09557071328163147, 0.10578323900699615, 0.09163135290145874, 0.10460805147886276, 0.12137513607740402, 0.12346067279577255, 0.12930350005626678, 0.11184123158454895, 0.10813360661268234, 0.11885924637317657, 0.13827462494373322, 0.12999866902828217, 0.12970073521137238, 0.1355435699224472, 0.12008408457040787, 0.1404760330915451, 0.13372285664081573, 0.12677104771137238, 0.1297338455915451, 0.138572558760643, 0.12301377207040787, 0.16202661395072937, 0.15725967288017273, 0.1438526213169098, 0.13536149263381958, 0.14014498889446259, 0.14343883097171783, 0.14588850736618042, 0.14986096322536469, 0.16244041919708252, 0.14211466908454895, 0.141502246260643, 0.13367320597171783, 0.15643207728862762, 0.15725967288017273, 0.143455371260643, 0.14388573169708252, 0.15055614709854126, 0.1594279706478119, 0.14607058465480804, 0.14136983454227448, 0.1390194594860077, 0.15288996696472168, 0.16770392656326294, 0.15373411774635315, 0.15353548526763916, 0.16561837494373322, 0.178810253739357, 0.14026086032390594, 0.14188294112682343, 0.1913565993309021, 0.18074682354927063, 0.16330111026763916, 0.17179223895072937, 0.15911348164081573, 0.1618114411830902, 0.14461401104927063, 0.17606262862682343, 0.17679092288017273, 0.15646517276763916, 0.175681933760643, 0.16169558465480804, 0.15977555513381958, 0.15782243013381958, 0.17293432354927063, 0.16525423526763916, 0.1599079668521881, 0.1662639081478119, 0.15868313610553741, 0.17038533091545105, 0.17376191914081573, 0.14952991902828217, 0.15062235295772552, 0.19597457349300385, 0.1832958161830902, 0.17331501841545105, 0.17538399994373322, 0.21866723895072937, 0.17894266545772552, 0.17995232343673706, 0.18917174637317657, 0.18966829776763916, 0.1943359375, 0.1837427169084549, 0.1721232831478119, 0.18321305513381958, 0.16978946328163147, 0.186622753739357, 0.19094279408454895, 0.17962129414081573, 0.17252051830291748, 0.16980601847171783, 0.1765095293521881, 0.20519398152828217, 0.19362419843673706, 0.19337593019008636, 0.18645723164081573, 0.1871524155139923, 0.17266948521137238, 0.19143936038017273, 0.1845703125, 0.17842955887317657, 0.18556343019008636, 0.20534296333789825, 0.1828158050775528, 0.19602423906326294, 0.18801310658454895, 0.1814916580915451, 0.2142147719860077, 0.21342028677463531, 0.19981461763381958, 0.20133739709854126, 0.22409626841545105, 0.20469743013381958, 0.2112850844860077, 0.14972855150699615, 0.19958288967609406, 0.20070841908454895, 0.19905322790145874, 0.19474974274635315, 0.18341167271137238, 0.1702198088169098, 0.18192200362682343, 0.20079118013381958, 0.19602423906326294, 0.1966366469860077, 0.19334281980991364, 0.17844611406326294, 0.19279661774635315, 0.20681607723236084, 0.16841565072536469, 0.20353880524635315, 0.21929621696472168, 0.21661479771137238, 0.19580905139446259, 0.18450410664081573, 0.20453190803527832, 0.2001456618309021, 0.18572895228862762, 0.2013208419084549, 0.20183394849300385, 0.1945345550775528, 0.18023371696472168, 0.20378707349300385, 0.22071968019008636, 0.20468087494373322, 0.19430282711982727, 0.18157441914081573, 0.18112751841545105, 0.1886751800775528, 0.18572895228862762, 0.19193591177463531, 0.22613215446472168, 0.18140889704227448, 0.19278006255626678, 0.18233580887317657, 0.2336467206478119, 0.19382283091545105, 0.19519664347171783, 0.22389765083789825, 0.2106395661830902, 0.21788929402828217, 0.2315942794084549, 0.202049121260643, 0.20653469860553741, 0.21433064341545105, 0.18543101847171783, 0.22265625, 0.22159692645072937, 0.20386983454227448, 0.2341267168521881, 0.19362419843673706, 0.1832958161830902, 0.21507547795772552, 0.1951138824224472, 0.20653469860553741, 0.21404926478862762, 0.2171444594860077, 0.21716101467609406, 0.20357190072536469, 0.2267114669084549, 0.2238314300775528, 0.20466433465480804, 0.19378972053527832, 0.22745630145072937, 0.21817068755626678, 0.20370431244373322, 0.18044888973236084, 0.2233845293521881, 0.2165982574224472, 0.22062036395072937, 0.19779528677463531, 0.19925186038017273, 0.20674987137317657, 0.23187565803527832, 0.21380098164081573, 0.20198291540145874, 0.2246590256690979, 0.22156383097171783, 0.20286017656326294, 0.21257613599300385, 0.20100635290145874, 0.21408236026763916, 0.22355005145072937, 0.20309188961982727, 0.22520524263381958, 0.2156713455915451, 0.20213188230991364, 0.22272245585918427, 0.26282772421836853, 0.20994438230991364, 0.21500927209854126, 0.2033732831478119, 0.2278866469860077, 0.209083691239357, 0.2138671875, 0.22212658822536469, 0.1976132094860077, 0.2435116469860077, 0.22384798526763916, 0.199119433760643, 0.21184785664081573, 0.23528535664081573, 0.20754435658454895, 0.20206567645072937, 0.22184520959854126, 0.21590307354927063, 0.19410420954227448, 0.21062301099300385, 0.2158203125, 0.22596663236618042, 0.20638573169708252, 0.22366592288017273, 0.2048795074224472, 0.22513903677463531, 0.20694848895072937, 0.2145458161830902, 0.19825874269008636, 0.2169458419084549, 0.20059256255626678, 0.20393604040145874, 0.23614604771137238, 0.20362155139446259, 0.1945842206478119, 0.22547008097171783, 0.21931277215480804, 0.20236361026763916, 0.20777608454227448, 0.22462593019008636, 0.2342260330915451, 0.2410619705915451, 0.2272907793521881, 0.2019498199224472, 0.21481063961982727, 0.23651020228862762, 0.20382018387317657, 0.20838850736618042, 0.21908104419708252, 0.22883011400699615, 0.21242716908454895, 0.20203258097171783, 0.24260130524635315, 0.20901748538017273, 0.22442729771137238, 0.19504767656326294, 0.24586202204227448, 0.23445776104927063, 0.20181739330291748, 0.21929621696472168, 0.2277873456478119, 0.25422072410583496, 0.1985897719860077, 0.17771781980991364, 0.2389598786830902, 0.19036348164081573, 0.19675251841545105, 0.23372948169708252, 0.2453654706478119, 0.24437235295772552, 0.25963321328163147, 0.22985632717609406, 0.21745894849300385, 0.22134864330291748, 0.23293498158454895, 0.2350536286830902, 0.22128243744373322, 0.22927701473236084, 0.20105601847171783, 0.2141154706478119, 0.2285652756690979, 0.23778469860553741, 0.20860368013381958, 0.23296809196472168, 0.21656514704227448, 0.2487255036830902, 0.23209083080291748, 0.24079714715480804, 0.22497351467609406, 0.21856792271137238, 0.23445776104927063, 0.24054886400699615, 0.20663399994373322, 0.21831965446472168, 0.20062565803527832, 0.21009334921836853, 0.2294425368309021, 0.21568790078163147, 0.2505462169647217, 0.23126323521137238, 0.23219014704227448, 0.22091829776763916, 0.22222590446472168, 0.23361361026763916, 0.25920286774635315, 0.22406315803527832, 0.2052270919084549, 0.18885725736618042, 0.23561640083789825, 0.22833354771137238, 0.22439420223236084, 0.2013704925775528, 0.22932666540145874, 0.2271914780139923, 0.22128243744373322, 0.2177734375, 0.19925186038017273, 0.23816539347171783, 0.2551310956478119, 0.217674121260643, 0.2355005294084549, 0.23270325362682343, 0.24357786774635315, 0.22249072790145874, 0.23513638973236084, 0.2277376800775528, 0.2543862462043762, 0.20481330156326294, 0.2203555405139923, 0.22547008097171783, 0.21100370585918427, 0.20809057354927063, 0.21964380145072937, 0.21803827583789825, 0.23548397421836853, 0.27487751841545105, 0.22672802209854126, 0.2307666838169098, 0.26032838225364685, 0.24251854419708252, 0.25842490792274475, 0.22883011400699615, 0.24602754414081573, 0.22507283091545105, 0.23665916919708252, 0.23508673906326294, 0.2409626543521881, 0.227439746260643, 0.21300648152828217, 0.2184024155139923, 0.22712527215480804, 0.2239307463169098, 0.24632547795772552, 0.21159957349300385, 0.20175118744373322, 0.2170451581478119, 0.22931011021137238, 0.25172141194343567, 0.24571305513381958, 0.24862618744373322, 0.2228548675775528, 0.2431144118309021, 0.2282176911830902, 0.20752780139446259, 0.23934057354927063, 0.2352025955915451, 0.22053760290145874, 0.2366757094860077, 0.23861229419708252, 0.24538202583789825, 0.2363777756690979, 0.23147842288017273, 0.25486627221107483, 0.23712261021137238, 0.24134334921836853, 0.21613480150699615, 0.21666446328163147, 0.22596663236618042, 0.22325211763381958, 0.24627582728862762, 0.24632547795772552, 0.23482190072536469, 0.24447166919708252, 0.25018206238746643, 0.2355998456478119, 0.23604674637317657, 0.227638378739357, 0.21634997427463531, 0.2156216949224472, 0.23194186389446259, 0.2179224044084549, 0.24923861026763916, 0.2294425368309021, 0.23756952583789825, 0.20506156980991364, 0.25013241171836853, 0.24587857723236084, 0.2195775955915451, 0.24791446328163147, 0.24068127572536469, 0.23190876841545105, 0.2257845550775528, 0.24847722053527832, 0.23775158822536469, 0.22303694486618042, 0.22527144849300385, 0.25172141194343567, 0.19470007717609406, 0.23621226847171783, 0.24761652946472168, 0.23980402946472168, 0.22839976847171783, 0.2720140218734741, 0.22297073900699615, 0.23346464335918427, 0.21793895959854126, 0.24220405519008636, 0.23487155139446259, 0.2147940993309021, 0.25203588604927063, 0.26248013973236084, 0.2306673675775528, 0.22452661395072937, 0.24099576473236084, 0.21934586763381958, 0.2204051911830902, 0.227638378739357, 0.22204382717609406, 0.2554786801338196, 0.21722722053527832, 0.22844941914081573, 0.24293233454227448, 0.2572662830352783, 0.21631686389446259, 0.23902608454227448, 0.253128319978714, 0.22278866171836853, 0.24185645580291748, 0.19797736406326294, 0.24960274994373322, 0.2200741469860077, 0.2643008530139923, 0.2336467206478119, 0.248924121260643, 0.24011851847171783, 0.21267545223236084, 0.23225635290145874, 0.2679753601551056, 0.25852423906326294, 0.23785090446472168, 0.2205541580915451, 0.2635725736618042, 0.2156713455915451, 0.25910353660583496, 0.27135196328163147, 0.2353019118309021, 0.24374337494373322, 0.23088255524635315, 0.22873079776763916, 0.20524364709854126, 0.23503707349300385, 0.2335474044084549, 0.2492220550775528, 0.23674193024635315, 0.24801376461982727, 0.25676971673965454, 0.2503972351551056, 0.2480965256690979, 0.25777938961982727, 0.23053495585918427, 0.22891287505626678, 0.22161348164081573, 0.22154727578163147, 0.23511983454227448, 0.2418895661830902, 0.24142611026763916, 0.2544524669647217, 0.216896191239357, 0.23382878303527832, 0.23894332349300385, 0.24337923526763916, 0.23591433465480804, 0.20769332349300385, 0.2252383530139923, 0.2345736175775528, 0.24051575362682343, 0.23894332349300385, 0.2732885479927063, 0.21505892276763916, 0.2091829925775528, 0.26628708839416504, 0.21661479771137238, 0.23829780519008636, 0.21024231612682343, 0.22710871696472168, 0.23371292650699615, 0.2308163344860077, 0.27330508828163147, 0.23551708459854126, 0.22439420223236084, 0.21300648152828217, 0.24842756986618042, 0.22775423526763916, 0.23912540078163147, 0.208885058760643, 0.220603808760643, 0.2505793273448944, 0.2366757094860077, 0.21224510669708252, 0.21658170223236084, 0.2311970293521881, 0.2608911693096161, 0.2513737976551056, 0.24152542650699615, 0.232421875, 0.2525489926338196, 0.22732388973236084, 0.2314453125, 0.25627318024635315, 0.2440909743309021, 0.2748940587043762, 0.21335408091545105, 0.24129369854927063, 0.23541776835918427, 0.23316670954227448, 0.229392871260643, 0.25392279028892517, 0.21653205156326294, 0.23983712494373322, 0.2434123456478119, 0.2506786286830902, 0.24129369854927063, 0.24637512862682343, 0.20949748158454895, 0.23460672795772552, 0.2292439043521881, 0.23316670954227448, 0.23326602578163147, 0.25582626461982727, 0.23553363978862762, 0.27244439721107483, 0.2537572979927063, 0.2671808898448944, 0.23225635290145874, 0.23091565072536469, 0.27734375, 0.22043830156326294, 0.24354475736618042, 0.22669491171836853, 0.2641684412956238, 0.23473913967609406, 0.23824813961982727, 0.2187996506690979, 0.2418895661830902, 0.24667306244373322, 0.2435116469860077, 0.2631918787956238, 0.2122616469860077, 0.22901217639446259, 0.23839710652828217, 0.23283568024635315, 0.25637248158454895, 0.23927436769008636, 0.20408500730991364, 0.21164923906326294, 0.24059851467609406, 0.22396385669708252, 0.2502482831478119, 0.24407441914081573, 0.21183130145072937, 0.23003840446472168, 0.20603813230991364, 0.26012977957725525, 0.2515724301338196, 0.24104541540145874, 0.23376257717609406, 0.2157706618309021, 0.24935448169708252, 0.25382348895072937, 0.24803031980991364, 0.26726365089416504, 0.25695180892944336, 0.23943988978862762, 0.22134864330291748, 0.22371557354927063, 0.2269100844860077, 0.2557104229927063, 0.27249404788017273, 0.2326701581478119, 0.23459017276763916, 0.2532772719860077, 0.21154992282390594, 0.23948954045772552, 0.2234341949224472, 0.27307334542274475, 0.25496557354927063, 0.28045549988746643, 0.24036678671836853, 0.24010196328163147, 0.2603449523448944, 0.20818988978862762, 0.2614704668521881, 0.23629501461982727, 0.26653534173965454, 0.22927701473236084, 0.24160818755626678, 0.25486627221107483, 0.25183725357055664, 0.23387844860553741, 0.22502318024635315, 0.24685513973236084, 0.25384002923965454, 0.23497086763381958, 0.2638208568096161, 0.21532376110553741, 0.23250463604927063, 0.2624139189720154, 0.22790320217609406, 0.22737354040145874, 0.24955309927463531, 0.26233115792274475, 0.21908104419708252, 0.2563393712043762, 0.25104278326034546, 0.23316670954227448, 0.2620994448661804, 0.2274894118309021, 0.24705375730991364, 0.25100967288017273, 0.23939022421836853, 0.2331998199224472, 0.24523304402828217, 0.24137645959854126, 0.25514763593673706, 0.23814883828163147, 0.24488545954227448, 0.20827265083789825, 0.2323722243309021, 0.2480965256690979, 0.23872815072536469, 0.2454647719860077, 0.2276880294084549, 0.21346993744373322, 0.24659030139446259, 0.24660685658454895, 0.2510758638381958, 0.21442995965480804, 0.2592359781265259, 0.22369901835918427, 0.2208520919084549, 0.23020392656326294, 0.2553793787956238, 0.24387580156326294, 0.24334613978862762, 0.25489935278892517, 0.23175980150699615, 0.2136685699224472, 0.24175715446472168, 0.25491592288017273, 0.24852688610553741, 0.26847192645072937, 0.25218483805656433, 0.25201934576034546, 0.2434123456478119, 0.2740333676338196, 0.2287142425775528, 0.24826204776763916, 0.23690743744373322, 0.2836996912956238, 0.22697630524635315, 0.2621159851551056, 0.21924655139446259, 0.23391154408454895, 0.238380566239357, 0.2596663236618042, 0.22469213604927063, 0.24044954776763916, 0.23761917650699615, 0.24422338604927063, 0.23962195217609406, 0.24826204776763916, 0.2652939558029175, 0.26696571707725525, 0.2613380551338196, 0.23162738978862762, 0.25925251841545105, 0.2552800476551056, 0.24849377572536469, 0.24685513973236084, 0.24700410664081573, 0.24567995965480804, 0.2673298418521881, 0.24740135669708252, 0.23541776835918427, 0.24258475005626678, 0.262893944978714, 0.21843551099300385, 0.1978946030139923, 0.24119438230991364, 0.2275390625, 0.23953919112682343, 0.24006885290145874, 0.24564684927463531, 0.24039989709854126, 0.24730204045772552, 0.27073952555656433, 0.2295418381690979, 0.22765491902828217, 0.22892943024635315, 0.23295153677463531, 0.24187301099300385, 0.23881091177463531, 0.2808196544647217, 0.24182336032390594, 0.2468716949224472, 0.2524496912956238, 0.2215307205915451, 0.2731561064720154, 0.24172404408454895, 0.2366757094860077, 0.23987023532390594, 0.21866723895072937, 0.2239307463169098, 0.2641518712043762, 0.2662208676338196, 0.27116990089416504, 0.23963850736618042, 0.2719809412956238, 0.25559455156326294, 0.26345670223236084, 0.26754501461982727, 0.2468220293521881, 0.2542538344860077, 0.2518538236618042, 0.24332958459854126, 0.24289923906326294, 0.2562897205352783, 0.25144001841545105, 0.2496524155139923, 0.26251325011253357, 0.23753641545772552, 0.23692399263381958, 0.2731395661830902, 0.23214049637317657, 0.23902608454227448, 0.24846068024635315, 0.25089380145072937, 0.2606428861618042, 0.22823424637317657, 0.25475040078163147, 0.23991988599300385, 0.25804421305656433, 0.24405786395072937, 0.23558329045772552, 0.24673926830291748, 0.272659569978714, 0.24119438230991364, 0.2633408308029175, 0.23909229040145874, 0.24447166919708252, 0.22298729419708252, 0.2157706618309021, 0.2604607939720154, 0.26531052589416504, 0.22222590446472168, 0.279296875, 0.22254039347171783, 0.22494041919708252, 0.25041380524635315, 0.26238083839416504, 0.2283666580915451, 0.21989208459854126, 0.26842227578163147, 0.2533269226551056, 0.2297404706478119, 0.22570179402828217, 0.24816273152828217, 0.27239471673965454, 0.23977091908454895, 0.22606594860553741, 0.2923894226551056, 0.23172669112682343, 0.2355005294084549, 0.23002184927463531, 0.23831436038017273, 0.2629932463169098, 0.2858017683029175, 0.22417902946472168, 0.26837262511253357, 0.2817962169647217, 0.24468684196472168, 0.20699813961982727, 0.2604607939720154, 0.212013378739357, 0.26257944107055664, 0.27742651104927063, 0.24195577204227448, 0.21980932354927063, 0.21543961763381958, 0.23396120965480804, 0.2265128493309021, 0.2774430513381958, 0.2547835111618042, 0.24031713604927063, 0.2480965256690979, 0.23924125730991364, 0.2650953531265259, 0.24374337494373322, 0.24781514704227448, 0.24342890083789825, 0.2621987462043762, 0.21404926478862762, 0.2346232831478119, 0.23601363599300385, 0.23091565072536469, 0.21676376461982727, 0.23488810658454895, 0.25647178292274475, 0.23927436769008636, 0.24538202583789825, 0.24715307354927063, 0.24860964715480804, 0.23816539347171783, 0.2622980773448944, 0.24255163967609406, 0.23430879414081573, 0.23801642656326294, 0.25794491171836853, 0.24971862137317657, 0.25769662857055664, 0.247169628739357, 0.2699284851551056, 0.26248013973236084, 0.2467723786830902, 0.26248013973236084, 0.2370067536830902, 0.25882217288017273, 0.24442200362682343, 0.23475569486618042, 0.2038532793521881, 0.23894332349300385, 0.26628708839416504, 0.23821504414081573, 0.27580443024635315, 0.2651450037956238, 0.2552800476551056, 0.2575145661830902, 0.24288268387317657, 0.25349244475364685, 0.23358051478862762, 0.23957230150699615, 0.2612221837043762, 0.25291314721107483, 0.2404329925775528, 0.27059057354927063, 0.20890161395072937, 0.24324682354927063, 0.25041380524635315, 0.2364770919084549, 0.23507018387317657, 0.24625927209854126, 0.2256355881690979, 0.21712791919708252, 0.2606925368309021, 0.2274894118309021, 0.2709878087043762, 0.27064022421836853, 0.2728085219860077, 0.2762678861618042, 0.2527807354927063, 0.2373543381690979, 0.2610235810279846, 0.2666015625, 0.23670881986618042, 0.2513737976551056, 0.24236957728862762, 0.2905852794647217, 0.2904859781265259, 0.20173464715480804, 0.2587890625, 0.2616690993309021, 0.2604442536830902, 0.2542538344860077, 0.2311970293521881, 0.24495166540145874, 0.22667835652828217, 0.2433626800775528, 0.2758871912956238, 0.25408831238746643, 0.22244107723236084, 0.23483845591545105, 0.21550582349300385, 0.2523834705352783, 0.26641950011253357, 0.2595173418521881, 0.25582626461982727, 0.2507282793521881, 0.2672967314720154, 0.2522510588169098, 0.2642512023448944, 0.2419392168521881, 0.2592856287956238, 0.26872020959854126, 0.22555282711982727, 0.2626953125, 0.25408831238746643, 0.22507283091545105, 0.23526880145072937, 0.2561573088169098, 0.22835010290145874, 0.24488545954227448, 0.2611394226551056, 0.25003311038017273, 0.2412109375, 0.24659030139446259, 0.2507282793521881, 0.23142875730991364, 0.2727423310279846, 0.23943988978862762, 0.2562566101551056, 0.23967161774635315, 0.240333691239357, 0.25071173906326294, 0.24447166919708252, 0.24735169112682343, 0.24519994854927063, 0.26027873158454895, 0.24637512862682343, 0.25100967288017273, 0.23841366171836853, 0.2729409337043762, 0.24908964335918427, 0.2573159337043762, 0.2649960219860077, 0.23111426830291748, 0.22917769849300385, 0.2499503493309021, 0.2574649155139923, 0.2649960219860077, 0.2525324523448944, 0.25422072410583496, 0.2703588604927063, 0.26780983805656433, 0.25216829776763916, 0.22793631255626678, 0.24708686769008636, 0.2531779706478119, 0.24318061769008636, 0.2737188935279846, 0.23295153677463531, 0.25183725357055664, 0.2613711655139923, 0.2365764081478119, 0.24685513973236084, 0.27067333459854126, 0.24405786395072937, 0.24074748158454895, 0.2604442536830902, 0.24978482723236084, 0.24356131255626678, 0.243064746260643, 0.2694319486618042, 0.25446900725364685, 0.19246557354927063, 0.264449805021286, 0.26473119854927063, 0.2642180919647217, 0.26310911774635315, 0.2353515625, 0.2443392425775528, 0.28078654408454895, 0.24998344480991364, 0.2464413344860077, 0.26468154788017273, 0.2194286286830902, 0.24652409553527832, 0.26837262511253357, 0.2301708161830902, 0.2543531656265259, 0.25236693024635315, 0.2399860918521881, 0.2669987976551056, 0.25086069107055664, 0.22429488599300385, 0.2624139189720154, 0.25715041160583496, 0.25134071707725525, 0.255859375, 0.2500496506690979, 0.26731330156326294, 0.24129369854927063, 0.2554290294647217, 0.24895723164081573, 0.25486627221107483, 0.24776549637317657, 0.2592856287956238, 0.24874205887317657, 0.2464413344860077, 0.2639201581478119, 0.2542372941970825, 0.23748676478862762, 0.21691273152828217, 0.2565048933029175, 0.2816969156265259, 0.23861229419708252, 0.24089644849300385, 0.23171015083789825, 0.24817928671836853, 0.2684553861618042, 0.2710871398448944, 0.24180680513381958, 0.25925251841545105, 0.2257845550775528, 0.24996688961982727, 0.2665022611618042, 0.26550912857055664, 0.2545517683029175, 0.2838817536830902, 0.26701536774635315, 0.25081104040145874, 0.25902077555656433, 0.2780223786830902, 0.22767147421836853, 0.2604111433029175, 0.25071173906326294, 0.25008276104927063, 0.2147940993309021, 0.2345736175775528, 0.25627318024635315, 0.24475304782390594, 0.26155322790145874, 0.23531845211982727, 0.26344016194343567, 0.2679091691970825, 0.2701105773448944, 0.25089380145072937, 0.2801244854927063, 0.23682467639446259, 0.2567862868309021, 0.26271185278892517, 0.3119206726551056, 0.2583090662956238, 0.25632283091545105, 0.26946502923965454, 0.2818458676338196, 0.27424854040145874, 0.26749536395072937, 0.26613810658454895, 0.23185911774635315, 0.26852157711982727, 0.25807732343673706, 0.2536248564720154, 0.2870597243309021, 0.23948954045772552, 0.2413599044084549, 0.23162738978862762, 0.26246359944343567, 0.26531052589416504, 0.259765625, 0.24144266545772552, 0.24094611406326294, 0.23240531980991364, 0.29435911774635315, 0.23738744854927063, 0.2623477280139923, 0.25539591908454895, 0.2384302169084549, 0.2463916838169098, 0.2816472351551056, 0.25274762511253357, 0.2594676911830902, 0.2756720185279846, 0.23985368013381958, 0.262496680021286, 0.26550912857055664, 0.25377383828163147, 0.24680548906326294, 0.24768273532390594, 0.24475304782390594, 0.25953391194343567, 0.26335740089416504, 0.21798861026763916, 0.26539328694343567, 0.25076138973236084, 0.26951470971107483, 0.25218483805656433, 0.2700278162956238, 0.27545684576034546, 0.20001323521137238, 0.2702264189720154, 0.2600470185279846, 0.24879170954227448, 0.30197298526763916, 0.2258838713169098, 0.25110897421836853, 0.24963586032390594, 0.25675317645072937, 0.24081368744373322, 0.26355600357055664, 0.2469213455915451, 0.26365533471107483, 0.261917382478714, 0.2700774669647217, 0.23947298526763916, 0.23291842639446259, 0.2699615955352783, 0.27423200011253357, 0.2750595808029175, 0.24945378303527832, 0.26550912857055664, 0.25480005145072937, 0.2601628601551056, 0.27272576093673706, 0.26027873158454895, 0.2549324631690979, 0.25413796305656433, 0.2463916838169098, 0.23308394849300385, 0.24569649994373322, 0.28441140055656433, 0.27638372778892517, 0.24154198169708252, 0.29803362488746643, 0.25359177589416504, 0.2617684006690979, 0.28816869854927063, 0.3095206618309021, 0.25562766194343567, 0.2834845185279846, 0.28957560658454895, 0.22510592639446259, 0.24364407360553741, 0.2542372941970825, 0.3039923310279846, 0.24650755524635315, 0.2578125, 0.2590869963169098, 0.24510063230991364, 0.26588982343673706, 0.2756720185279846, 0.24344544112682343, 0.25011587142944336, 0.25862354040145874, 0.2755396068096161, 0.24152542650699615, 0.23553363978862762, 0.267379492521286]","[10.9375, 7.15625, 6.90625, 6.46875, 6.5, 6.375, 6.21875, 6.1875, 6.15625, 6.0625, 6.0625, 6.0625, 5.90625, 5.8125, 5.8125, 5.71875, 5.75, 5.53125, 5.6875, 5.59375, 5.59375, 5.5, 5.65625, 5.34375, 5.4375, 5.375, 5.28125, 5.40625, 5.3125, 5.4375, 5.375, 5.1875, 5.28125, 5.25, 5.15625, 5.25, 5.3125, 5.1875, 5.25, 5.125, 5.21875, 5.15625, 5.25, 5.09375, 5.03125, 5.09375, 5.125, 4.9375, 5.0, 5.09375, 5.125, 4.875, 5.03125, 5.03125, 4.84375, 4.875, 4.875, 4.84375, 4.9375, 4.84375, 4.90625, 4.90625, 4.71875, 4.875, 4.9375, 4.9375, 4.84375, 4.8125, 4.96875, 4.6875, 5.0, 4.8125, 4.78125, 4.875, 4.71875, 4.78125, 4.78125, 4.75, 4.8125, 4.78125, 4.875, 4.84375, 4.78125, 4.75, 4.71875, 4.8125, 4.8125, 4.8125, 4.75, 4.78125, 4.75, 4.71875, 4.78125, 4.71875, 4.65625, 4.5, 4.75, 4.65625, 4.71875, 4.65625, 4.8125, 4.6875, 4.625, 4.65625, 4.625, 4.5625, 4.5625, 4.5, 4.59375, 4.65625, 4.59375, 4.59375, 4.46875, 4.59375, 4.46875, 4.4375, 4.5625, 4.625, 4.46875, 4.5625, 4.40625, 4.375, 4.5, 4.4375, 4.46875, 4.375, 4.34375, 4.4375, 4.40625, 4.46875, 4.34375, 4.40625, 4.3125, 4.5625, 4.40625, 4.5625, 4.4375, 4.4375, 4.5, 4.34375, 4.3125, 4.25, 4.15625, 4.46875, 4.3125, 4.375, 4.3125, 4.34375, 4.1875, 4.4375, 4.375, 4.1875, 4.34375, 4.34375, 4.3125, 4.4375, 4.25, 4.375, 4.28125, 4.40625, 4.28125, 4.15625, 4.21875, 4.53125, 4.40625, 4.34375, 4.25, 4.40625, 4.4375, 4.34375, 4.3125, 4.3125, 4.28125, 4.15625, 4.09375, 4.03125, 4.375, 4.21875, 4.21875, 4.21875, 4.375, 4.15625, 4.28125, 4.28125, 4.1875, 4.15625, 4.0625, 4.21875, 4.28125, 4.28125, 4.15625, 4.15625, 4.21875, 4.15625, 4.0625, 4.125, 4.15625, 4.0625, 4.3125, 4.09375, 4.34375, 4.1875, 4.25, 4.21875, 4.09375, 4.3125, 4.28125, 4.1875, 4.25, 4.0625, 4.34375, 4.21875, 4.1875, 4.0625, 4.1875, 4.21875, 4.1875, 4.1875, 4.09375, 4.0, 4.1875, 4.15625, 4.25, 4.3125, 4.09375, 4.03125, 4.03125, 4.03125, 4.09375, 4.15625, 4.0625, 4.09375, 4.0, 4.15625, 4.3125, 4.09375, 4.09375, 4.15625, 3.96875, 4.125, 3.96875, 4.09375, 4.0625, 4.125, 4.15625, 4.09375, 4.0, 4.1875, 4.09375, 4.25, 4.09375, 4.0625, 4.1875, 4.21875, 4.1875, 4.125, 4.21875, 4.15625, 3.984375, 4.15625, 4.15625, 4.0, 4.09375, 4.03125, 4.25, 4.15625, 4.09375, 4.09375, 4.09375, 4.125, 4.15625, 4.0625, 4.03125, 4.21875, 3.96875, 3.859375, 4.125, 3.96875, 3.90625, 4.15625, 4.15625, 4.03125, 4.125, 4.15625, 4.15625, 3.96875, 4.21875, 3.96875, 4.09375, 4.03125, 4.0625, 4.0625, 4.15625, 4.0625, 4.09375, 4.15625, 4.09375, 3.953125, 3.953125, 4.125, 3.953125, 3.75, 3.828125, 4.0625, 4.03125, 3.96875, 3.75, 3.9375, 4.03125, 4.03125, 4.09375, 4.09375, 3.890625, 3.859375, 4.03125, 3.96875, 4.21875, 3.984375, 3.78125, 3.875, 4.125, 4.125, 3.984375, 3.90625, 4.09375, 3.9375, 3.78125, 4.0625, 3.9375, 3.96875, 4.09375, 3.875, 4.0625, 3.921875, 4.125, 3.96875, 4.0625, 3.984375, 4.21875, 4.0, 4.125, 3.90625, 3.96875, 3.9375, 4.0625, 3.984375, 4.0625, 3.875, 3.984375, 4.0625, 4.09375, 3.96875, 4.0, 3.90625, 3.984375, 3.984375, 3.71875, 3.96875, 3.765625, 3.953125, 3.90625, 3.890625, 3.9375, 3.9375, 4.0, 3.796875, 3.984375, 3.953125, 3.9375, 4.03125, 4.0, 4.0, 3.9375, 3.953125, 3.734375, 3.984375, 4.09375, 3.875, 3.984375, 3.9375, 3.890625, 3.90625, 3.9375, 3.8125, 3.984375, 3.875, 4.0, 3.78125, 3.90625, 3.9375, 3.96875, 3.890625, 4.03125, 4.03125, 3.90625, 3.90625, 3.984375, 4.0, 3.875, 3.875, 3.9375, 3.859375, 3.859375, 4.0, 3.859375, 3.859375, 3.78125, 3.921875, 4.0, 3.96875, 4.09375, 3.828125, 3.75, 3.9375, 3.890625, 3.734375, 3.90625, 3.828125, 3.953125, 3.859375, 3.90625, 4.0625, 3.84375, 3.890625, 3.96875, 3.953125, 3.90625, 3.984375, 3.859375, 4.0625, 3.796875, 3.984375, 3.9375, 3.734375, 3.875, 4.0, 3.78125, 3.84375, 3.9375, 3.890625, 3.828125, 4.03125, 3.84375, 3.859375, 3.921875, 3.84375, 3.953125, 3.859375, 3.859375, 3.96875, 3.703125, 3.859375, 3.859375, 3.90625, 3.84375, 3.890625, 3.734375, 3.75, 3.71875, 3.828125, 3.890625, 3.859375, 3.90625, 3.96875, 3.875, 3.78125, 3.875, 3.78125, 3.8125, 3.734375, 3.8125, 3.734375, 3.890625, 3.890625, 3.859375, 3.859375, 3.84375, 3.828125, 3.734375, 3.796875, 3.8125, 3.84375, 3.765625, 3.734375, 3.859375, 3.9375, 3.84375, 3.84375, 3.703125, 3.859375, 3.828125, 3.859375, 3.90625, 3.609375, 3.5625, 3.71875, 3.796875, 3.796875, 4.0, 3.9375, 3.828125, 3.8125, 3.859375, 4.03125, 3.75, 3.765625, 3.875, 3.890625, 3.828125, 3.890625, 3.875, 4.09375, 3.75, 4.0, 3.796875, 3.875, 3.828125, 3.734375, 3.875, 3.8125, 3.734375, 3.796875, 3.625, 3.890625, 3.78125, 3.84375, 3.90625, 3.890625, 3.9375, 3.859375, 4.03125, 3.890625, 4.0, 3.65625, 3.765625, 3.71875, 4.03125, 3.859375, 3.84375, 3.703125, 3.6875, 3.828125, 3.78125, 3.90625, 3.765625, 3.796875, 3.8125, 3.921875, 3.765625, 3.6875, 3.65625, 3.796875, 3.875, 3.921875, 3.703125, 3.78125, 3.671875, 3.890625, 3.765625, 3.921875, 3.828125, 3.78125, 3.859375, 3.84375, 3.78125, 3.65625, 3.796875, 3.9375, 3.71875, 3.71875, 3.90625, 3.703125, 3.671875, 3.765625, 3.796875, 3.78125, 3.65625, 3.84375, 3.78125, 3.9375, 3.71875, 3.828125, 3.734375, 3.78125, 3.734375, 4.0, 3.828125, 3.71875, 3.65625, 3.734375, 3.65625, 3.9375, 3.671875, 3.578125, 3.734375, 3.6875, 3.796875, 3.78125, 3.75, 3.828125, 4.0, 3.59375, 3.65625, 3.703125, 3.84375, 3.765625, 3.8125, 3.78125, 3.796875, 3.796875, 3.796875, 3.828125, 3.78125, 3.671875, 3.671875, 3.90625, 3.796875, 3.75, 3.828125, 3.796875, 3.734375, 3.6875, 3.703125, 3.890625, 3.796875, 3.75, 3.6875, 3.78125, 3.765625, 3.75, 3.546875, 3.765625, 3.703125, 3.6875, 3.9375, 3.84375, 3.5625, 3.71875, 3.71875, 3.65625, 3.6875, 3.796875, 3.671875, 3.65625, 3.640625, 3.78125, 3.75, 3.640625, 3.75, 3.65625, 3.625, 3.609375, 3.6875, 3.796875, 3.71875, 3.765625, 3.796875, 3.859375, 3.703125, 3.75, 3.71875, 3.984375, 3.765625, 3.921875, 3.765625, 3.859375, 3.765625, 3.78125, 3.796875, 3.6875, 3.75, 3.796875, 3.78125, 3.84375, 3.84375, 3.609375, 3.859375, 3.90625, 3.8125, 3.703125, 3.796875, 3.8125, 3.765625, 3.609375, 3.703125, 3.8125, 3.859375, 3.703125, 3.546875, 3.71875, 3.875, 3.734375, 3.71875, 3.828125, 3.734375, 3.78125, 3.609375, 3.75, 3.875, 3.8125, 3.671875, 3.6875, 3.90625, 3.703125, 3.921875, 3.75, 3.765625, 3.71875, 3.78125, 3.625, 3.71875, 3.71875, 3.6875, 3.796875, 3.65625, 3.765625, 3.828125, 3.8125, 3.84375, 3.671875, 3.75, 3.71875, 3.8125, 3.921875, 3.625, 3.890625, 3.546875, 3.765625, 3.640625, 3.546875, 3.78125, 3.6875, 3.78125, 3.640625, 3.8125, 3.78125, 3.765625, 3.859375, 3.71875, 3.90625, 3.671875, 3.703125, 3.921875, 3.65625, 3.78125, 3.71875, 3.71875, 3.75, 3.859375, 3.6875, 3.75, 3.8125, 3.84375, 3.703125, 3.8125, 3.65625, 3.484375, 3.71875, 3.796875, 3.6875, 3.765625, 3.578125, 3.828125, 3.796875, 3.59375, 3.6875, 3.765625, 3.828125, 3.734375, 3.765625, 3.640625, 3.890625, 3.671875, 3.765625, 3.71875, 3.84375, 3.578125, 3.78125, 3.59375, 3.84375, 3.578125, 3.609375, 3.6875, 3.90625, 3.78125, 3.734375, 3.78125, 3.65625, 3.859375, 3.859375, 3.953125, 3.6875, 3.609375, 3.78125, 3.578125, 3.671875, 3.75, 3.6875, 3.671875, 3.640625, 3.78125, 3.625, 3.65625, 3.484375, 3.828125, 3.40625, 3.796875, 3.71875, 3.671875, 3.703125, 3.53125, 3.625, 3.703125, 3.796875, 3.84375, 3.71875, 3.765625, 3.734375, 3.46875, 3.703125, 3.734375, 3.71875, 3.65625, 3.71875, 3.84375, 3.6875, 3.703125, 3.546875, 3.625, 3.671875, 3.703125, 3.65625, 3.796875, 3.625, 3.65625, 3.765625, 3.609375, 3.578125, 3.640625, 3.609375, 3.609375, 3.8125, 3.6875, 3.890625, 3.671875, 3.78125, 3.75, 3.71875, 3.78125, 3.859375, 3.78125, 3.609375, 3.765625, 3.828125, 3.546875, 3.71875, 3.65625, 3.671875, 3.859375, 3.6875, 3.8125, 3.703125, 3.828125, 3.65625, 3.59375, 3.5625, 3.625, 3.75, 3.6875, 3.75, 3.671875, 3.578125, 3.640625, 3.65625, 3.71875, 3.71875, 3.6875, 3.75, 3.65625, 3.765625, 3.734375, 3.71875, 3.609375, 3.78125, 3.734375, 3.703125, 3.796875, 3.578125, 3.703125, 3.734375, 3.53125, 3.71875, 3.765625, 3.84375, 3.734375, 3.640625, 3.78125, 3.65625, 3.640625, 3.78125, 3.71875, 3.8125, 3.75, 3.75, 3.6875, 3.6875, 3.8125, 3.515625, 3.609375, 3.78125, 3.71875, 3.71875, 3.84375, 3.8125, 3.671875, 3.515625, 3.703125, 3.78125, 3.5625, 3.6875, 3.75, 3.78125, 3.71875, 3.859375, 3.671875, 3.8125, 3.703125, 3.703125, 3.640625, 3.6875, 3.71875, 3.640625, 3.609375, 3.625, 3.5625, 3.546875, 3.6875, 3.609375, 3.640625, 3.625, 3.6875, 3.59375, 3.640625, 3.5625, 3.75, 3.703125, 3.640625, 3.609375, 3.796875, 3.75, 3.984375, 3.765625, 3.75, 3.671875, 3.625, 3.65625, 3.453125, 3.4375, 3.65625, 3.625, 3.78125, 3.625, 3.59375, 3.671875, 3.5, 3.53125, 3.703125, 3.546875, 3.65625, 3.75, 3.625, 3.734375, 3.765625, 3.453125, 3.5625, 3.53125, 3.671875, 3.546875, 3.515625, 3.703125, 3.40625, 3.65625, 3.703125, 3.75, 3.515625, 3.65625, 3.546875, 3.625, 3.625, 3.625, 3.625, 3.6875, 3.640625, 3.671875, 3.5625, 3.453125, 3.5625, 3.59375, 3.71875, 3.703125, 3.703125, 3.75, 3.515625, 3.59375, 3.6875, 3.5, 3.6875, 3.6875, 3.671875, 3.609375, 3.765625, 3.796875, 3.53125, 3.59375, 3.6875, 3.703125, 3.421875, 3.671875, 3.53125, 3.734375, 3.578125, 3.609375, 3.515625, 3.625, 3.609375, 3.59375, 3.515625, 3.546875, 3.53125, 3.59375, 3.578125, 3.546875, 3.6875, 3.484375, 3.53125, 3.671875, 3.671875, 3.65625, 3.46875, 3.53125, 3.59375, 3.6875, 3.609375, 3.53125, 3.703125, 3.59375, 3.671875, 3.5625, 3.625, 3.59375, 3.46875, 3.640625, 3.65625, 3.796875, 3.640625, 3.671875, 3.671875, 3.640625, 3.625, 3.6875, 3.71875, 3.5625, 3.671875, 3.53125, 3.65625, 3.734375, 3.5625, 3.46875, 3.453125, 3.65625, 3.5625, 3.671875, 3.578125, 3.6875, 3.625, 3.671875, 3.640625, 3.453125, 3.625, 3.40625, 3.71875, 3.640625, 3.46875, 3.734375, 3.578125, 3.515625, 3.6875, 3.453125, 3.390625, 3.640625, 3.578125, 3.46875, 3.53125, 3.453125, 3.5625, 3.671875, 3.609375, 3.546875, 3.640625, 3.65625, 3.5, 3.640625, 3.484375, 3.5, 3.578125, 3.515625, 3.53125, 3.65625, 3.421875, 3.609375, 3.5625, 3.515625, 3.453125, 3.546875, 3.53125, 3.46875, 3.40625, 3.6875, 3.5, 3.546875, 3.5625, 3.390625, 3.515625, 3.46875, 3.625, 3.515625, 3.546875, 3.515625, 3.53125, 3.53125, 3.46875, 3.515625, 3.484375, 3.453125, 3.59375, 3.546875, 3.5, 3.46875, 3.578125, 3.515625, 3.578125, 3.625, 3.5625, 3.4375, 3.484375, 3.5625, 3.625, 3.453125, 3.59375, 3.359375, 3.546875, 3.625, 3.5, 3.484375, 3.4375, 3.546875, 3.546875, 3.578125, 3.4375]","[56320.0, 1280.0, 1000.0, 644.0, 664.0, 588.0, 502.0, 488.0, 472.0, 430.0, 430.0, 430.0, 368.0, 334.0, 334.0, 304.0, 314.0, 253.0, 296.0, 270.0, 270.0, 245.0, 286.0, 209.0, 230.0, 216.0, 197.0, 223.0, 203.0, 230.0, 216.0, 179.0, 197.0, 191.0, 174.0, 191.0, 203.0, 179.0, 191.0, 168.0, 185.0, 174.0, 191.0, 163.0, 153.0, 163.0, 168.0, 140.0, 149.0, 163.0, 168.0, 131.0, 153.0, 153.0, 127.0, 131.0, 131.0, 127.0, 140.0, 127.0, 135.0, 135.0, 112.0, 131.0, 140.0, 140.0, 127.0, 123.0, 144.0, 108.5, 149.0, 123.0, 119.5, 131.0, 112.0, 119.5, 119.5, 115.5, 123.0, 119.5, 131.0, 127.0, 119.5, 115.5, 112.0, 123.0, 123.0, 123.0, 115.5, 119.5, 115.5, 112.0, 119.5, 112.0, 105.5, 90.0, 115.5, 105.5, 112.0, 105.5, 123.0, 108.5, 102.0, 105.5, 102.0, 96.0, 96.0, 90.0, 99.0, 105.5, 99.0, 99.0, 87.5, 99.0, 87.5, 84.5, 96.0, 102.0, 87.5, 96.0, 82.0, 79.5, 90.0, 84.5, 87.5, 79.5, 77.0, 84.5, 82.0, 87.5, 77.0, 82.0, 74.5, 96.0, 82.0, 96.0, 84.5, 84.5, 90.0, 77.0, 74.5, 70.0, 64.0, 87.5, 74.5, 79.5, 74.5, 77.0, 66.0, 84.5, 79.5, 66.0, 77.0, 77.0, 74.5, 84.5, 70.0, 79.5, 72.5, 82.0, 72.5, 64.0, 68.0, 93.0, 82.0, 77.0, 70.0, 82.0, 84.5, 77.0, 74.5, 74.5, 72.5, 64.0, 60.0, 56.25, 79.5, 68.0, 68.0, 68.0, 79.5, 64.0, 72.5, 72.5, 66.0, 64.0, 58.25, 68.0, 72.5, 72.5, 64.0, 64.0, 68.0, 64.0, 58.25, 62.0, 64.0, 58.25, 74.5, 60.0, 77.0, 66.0, 70.0, 68.0, 60.0, 74.5, 72.5, 66.0, 70.0, 58.25, 77.0, 68.0, 66.0, 58.25, 66.0, 68.0, 66.0, 66.0, 60.0, 54.75, 66.0, 64.0, 70.0, 74.5, 60.0, 56.25, 56.25, 56.25, 60.0, 64.0, 58.25, 60.0, 54.75, 64.0, 74.5, 60.0, 60.0, 64.0, 53.0, 62.0, 53.0, 60.0, 58.25, 62.0, 64.0, 60.0, 54.75, 66.0, 60.0, 70.0, 60.0, 58.25, 66.0, 68.0, 66.0, 62.0, 68.0, 64.0, 53.75, 64.0, 64.0, 54.75, 60.0, 56.25, 70.0, 64.0, 60.0, 60.0, 60.0, 62.0, 64.0, 58.25, 56.25, 68.0, 53.0, 47.5, 62.0, 53.0, 49.75, 64.0, 64.0, 56.25, 62.0, 64.0, 64.0, 53.0, 68.0, 53.0, 60.0, 56.25, 58.25, 58.25, 64.0, 58.25, 60.0, 64.0, 60.0, 52.25, 52.25, 62.0, 52.25, 42.5, 46.0, 58.25, 56.25, 53.0, 42.5, 51.25, 56.25, 56.25, 60.0, 60.0, 49.0, 47.5, 56.25, 53.0, 68.0, 53.75, 44.0, 48.25, 62.0, 62.0, 53.75, 49.75, 60.0, 51.25, 44.0, 58.25, 51.25, 53.0, 60.0, 48.25, 58.25, 50.5, 62.0, 53.0, 58.25, 53.75, 68.0, 54.75, 62.0, 49.75, 53.0, 51.25, 58.25, 53.75, 58.25, 48.25, 53.75, 58.25, 60.0, 53.0, 54.75, 49.75, 53.75, 53.75, 41.25, 53.0, 43.25, 52.25, 49.75, 49.0, 51.25, 51.25, 54.75, 44.5, 53.75, 52.25, 51.25, 56.25, 54.75, 54.75, 51.25, 52.25, 42.0, 53.75, 60.0, 48.25, 53.75, 51.25, 49.0, 49.75, 51.25, 45.25, 53.75, 48.25, 54.75, 44.0, 49.75, 51.25, 53.0, 49.0, 56.25, 56.25, 49.75, 49.75, 53.75, 54.75, 48.25, 48.25, 51.25, 47.5, 47.5, 54.75, 47.5, 47.5, 44.0, 50.5, 54.75, 53.0, 60.0, 46.0, 42.5, 51.25, 49.0, 42.0, 49.75, 46.0, 52.25, 47.5, 49.75, 58.25, 46.75, 49.0, 53.0, 52.25, 49.75, 53.75, 47.5, 58.25, 44.5, 53.75, 51.25, 42.0, 48.25, 54.75, 44.0, 46.75, 51.25, 49.0, 46.0, 56.25, 46.75, 47.5, 50.5, 46.75, 52.25, 47.5, 47.5, 53.0, 40.5, 47.5, 47.5, 49.75, 46.75, 49.0, 42.0, 42.5, 41.25, 46.0, 49.0, 47.5, 49.75, 53.0, 48.25, 44.0, 48.25, 44.0, 45.25, 42.0, 45.25, 42.0, 49.0, 49.0, 47.5, 47.5, 46.75, 46.0, 42.0, 44.5, 45.25, 46.75, 43.25, 42.0, 47.5, 51.25, 46.75, 46.75, 40.5, 47.5, 46.0, 47.5, 49.75, 37.0, 35.25, 41.25, 44.5, 44.5, 54.75, 51.25, 46.0, 45.25, 47.5, 56.25, 42.5, 43.25, 48.25, 49.0, 46.0, 49.0, 48.25, 60.0, 42.5, 54.75, 44.5, 48.25, 46.0, 42.0, 48.25, 45.25, 42.0, 44.5, 37.5, 49.0, 44.0, 46.75, 49.75, 49.0, 51.25, 47.5, 56.25, 49.0, 54.75, 38.75, 43.25, 41.25, 56.25, 47.5, 46.75, 40.5, 40.0, 46.0, 44.0, 49.75, 43.25, 44.5, 45.25, 50.5, 43.25, 40.0, 38.75, 44.5, 48.25, 50.5, 40.5, 44.0, 39.25, 49.0, 43.25, 50.5, 46.0, 44.0, 47.5, 46.75, 44.0, 38.75, 44.5, 51.25, 41.25, 41.25, 49.75, 40.5, 39.25, 43.25, 44.5, 44.0, 38.75, 46.75, 44.0, 51.25, 41.25, 46.0, 42.0, 44.0, 42.0, 54.75, 46.0, 41.25, 38.75, 42.0, 38.75, 51.25, 39.25, 35.75, 42.0, 40.0, 44.5, 44.0, 42.5, 46.0, 54.75, 36.5, 38.75, 40.5, 46.75, 43.25, 45.25, 44.0, 44.5, 44.5, 44.5, 46.0, 44.0, 39.25, 39.25, 49.75, 44.5, 42.5, 46.0, 44.5, 42.0, 40.0, 40.5, 49.0, 44.5, 42.5, 40.0, 44.0, 43.25, 42.5, 34.75, 43.25, 40.5, 40.0, 51.25, 46.75, 35.25, 41.25, 41.25, 38.75, 40.0, 44.5, 39.25, 38.75, 38.25, 44.0, 42.5, 38.25, 42.5, 38.75, 37.5, 37.0, 40.0, 44.5, 41.25, 43.25, 44.5, 47.5, 40.5, 42.5, 41.25, 53.75, 43.25, 50.5, 43.25, 47.5, 43.25, 44.0, 44.5, 40.0, 42.5, 44.5, 44.0, 46.75, 46.75, 37.0, 47.5, 49.75, 45.25, 40.5, 44.5, 45.25, 43.25, 37.0, 40.5, 45.25, 47.5, 40.5, 34.75, 41.25, 48.25, 42.0, 41.25, 46.0, 42.0, 44.0, 37.0, 42.5, 48.25, 45.25, 39.25, 40.0, 49.75, 40.5, 50.5, 42.5, 43.25, 41.25, 44.0, 37.5, 41.25, 41.25, 40.0, 44.5, 38.75, 43.25, 46.0, 45.25, 46.75, 39.25, 42.5, 41.25, 45.25, 50.5, 37.5, 49.0, 34.75, 43.25, 38.25, 34.75, 44.0, 40.0, 44.0, 38.25, 45.25, 44.0, 43.25, 47.5, 41.25, 49.75, 39.25, 40.5, 50.5, 38.75, 44.0, 41.25, 41.25, 42.5, 47.5, 40.0, 42.5, 45.25, 46.75, 40.5, 45.25, 38.75, 32.5, 41.25, 44.5, 40.0, 43.25, 35.75, 46.0, 44.5, 36.5, 40.0, 43.25, 46.0, 42.0, 43.25, 38.25, 49.0, 39.25, 43.25, 41.25, 46.75, 35.75, 44.0, 36.5, 46.75, 35.75, 37.0, 40.0, 49.75, 44.0, 42.0, 44.0, 38.75, 47.5, 47.5, 52.25, 40.0, 37.0, 44.0, 35.75, 39.25, 42.5, 40.0, 39.25, 38.25, 44.0, 37.5, 38.75, 32.5, 46.0, 30.125, 44.5, 41.25, 39.25, 40.5, 34.25, 37.5, 40.5, 44.5, 46.75, 41.25, 43.25, 42.0, 32.0, 40.5, 42.0, 41.25, 38.75, 41.25, 46.75, 40.0, 40.5, 34.75, 37.5, 39.25, 40.5, 38.75, 44.5, 37.5, 38.75, 43.25, 37.0, 35.75, 38.25, 37.0, 37.0, 45.25, 40.0, 49.0, 39.25, 44.0, 42.5, 41.25, 44.0, 47.5, 44.0, 37.0, 43.25, 46.0, 34.75, 41.25, 38.75, 39.25, 47.5, 40.0, 45.25, 40.5, 46.0, 38.75, 36.5, 35.25, 37.5, 42.5, 40.0, 42.5, 39.25, 35.75, 38.25, 38.75, 41.25, 41.25, 40.0, 42.5, 38.75, 43.25, 42.0, 41.25, 37.0, 44.0, 42.0, 40.5, 44.5, 35.75, 40.5, 42.0, 34.25, 41.25, 43.25, 46.75, 42.0, 38.25, 44.0, 38.75, 38.25, 44.0, 41.25, 45.25, 42.5, 42.5, 40.0, 40.0, 45.25, 33.75, 37.0, 44.0, 41.25, 41.25, 46.75, 45.25, 39.25, 33.75, 40.5, 44.0, 35.25, 40.0, 42.5, 44.0, 41.25, 47.5, 39.25, 45.25, 40.5, 40.5, 38.25, 40.0, 41.25, 38.25, 37.0, 37.5, 35.25, 34.75, 40.0, 37.0, 38.25, 37.5, 40.0, 36.5, 38.25, 35.25, 42.5, 40.5, 38.25, 37.0, 44.5, 42.5, 53.75, 43.25, 42.5, 39.25, 37.5, 38.75, 31.625, 31.125, 38.75, 37.5, 44.0, 37.5, 36.5, 39.25, 33.25, 34.25, 40.5, 34.75, 38.75, 42.5, 37.5, 42.0, 43.25, 31.625, 35.25, 34.25, 39.25, 34.75, 33.75, 40.5, 30.125, 38.75, 40.5, 42.5, 33.75, 38.75, 34.75, 37.5, 37.5, 37.5, 37.5, 40.0, 38.25, 39.25, 35.25, 31.625, 35.25, 36.5, 41.25, 40.5, 40.5, 42.5, 33.75, 36.5, 40.0, 33.25, 40.0, 40.0, 39.25, 37.0, 43.25, 44.5, 34.25, 36.5, 40.0, 40.5, 30.625, 39.25, 34.25, 42.0, 35.75, 37.0, 33.75, 37.5, 37.0, 36.5, 33.75, 34.75, 34.25, 36.5, 35.75, 34.75, 40.0, 32.5, 34.25, 39.25, 39.25, 38.75, 32.0, 34.25, 36.5, 40.0, 37.0, 34.25, 40.5, 36.5, 39.25, 35.25, 37.5, 36.5, 32.0, 38.25, 38.75, 44.5, 38.25, 39.25, 39.25, 38.25, 37.5, 40.0, 41.25, 35.25, 39.25, 34.25, 38.75, 42.0, 35.25, 32.0, 31.625, 38.75, 35.25, 39.25, 35.75, 40.0, 37.5, 39.25, 38.25, 31.625, 37.5, 30.125, 41.25, 38.25, 32.0, 42.0, 35.75, 33.75, 40.0, 31.625, 29.75, 38.25, 35.75, 32.0, 34.25, 31.625, 35.25, 39.25, 37.0, 34.75, 38.25, 38.75, 33.25, 38.25, 32.5, 33.25, 35.75, 33.75, 34.25, 38.75, 30.625, 37.0, 35.25, 33.75, 31.625, 34.75, 34.25, 32.0, 30.125, 40.0, 33.25, 34.75, 35.25, 29.75, 33.75, 32.0, 37.5, 33.75, 34.75, 33.75, 34.25, 34.25, 32.0, 33.75, 32.5, 31.625, 36.5, 34.75, 33.25, 32.0, 35.75, 33.75, 35.75, 37.5, 35.25, 31.125, 32.5, 35.25, 37.5, 31.625, 36.5, 28.75, 34.75, 37.5, 33.25, 32.5, 31.125, 34.75, 34.75, 35.75, 31.125]","[10.9375, 7.15625, 6.90625, 6.53125, 6.5, 6.40625, 6.28125, 6.21875, 6.125, 6.03125, 6.0625, 6.0625, 5.90625, 5.8125, 5.8125, 5.71875, 5.71875, 5.625, 5.6875, 5.625, 5.65625, 5.5625, 5.65625, 5.40625, 5.40625, 5.375, 5.34375, 5.4375, 5.40625, 5.4375, 5.34375, 5.21875, 5.25, 5.28125, 5.21875, 5.28125, 5.28125, 5.1875, 5.21875, 5.09375, 5.1875, 5.125, 5.21875, 5.125, 5.0625, 5.09375, 5.09375, 5.0, 5.03125, 5.125, 5.0625, 4.96875, 5.125, 4.9375, 4.84375, 4.90625, 4.875, 4.9375, 4.9375, 4.9375, 4.84375, 4.9375, 4.8125, 4.875, 4.96875, 4.9375, 4.8125, 4.875, 5.0, 4.78125, 4.96875, 4.875, 4.8125, 4.84375, 4.84375, 4.8125, 4.78125, 4.75, 4.78125, 4.78125, 4.71875, 4.78125, 4.78125, 4.75, 4.6875, 4.78125, 4.75, 4.84375, 4.71875, 4.75, 4.71875, 4.6875, 4.78125, 4.6875, 4.6875, 4.5625, 4.71875, 4.625, 4.71875, 4.6875, 4.6875, 4.71875, 4.59375, 4.625, 4.65625, 4.5625, 4.53125, 4.5625, 4.59375, 4.5625, 4.59375, 4.53125, 4.46875, 4.53125, 4.4375, 4.375, 4.5, 4.5625, 4.53125, 4.46875, 4.40625, 4.40625, 4.46875, 4.5, 4.5, 4.4375, 4.34375, 4.40625, 4.40625, 4.46875, 4.375, 4.375, 4.3125, 4.5, 4.40625, 4.5, 4.40625, 4.40625, 4.5, 4.375, 4.375, 4.34375, 4.25, 4.46875, 4.3125, 4.40625, 4.3125, 4.34375, 4.1875, 4.4375, 4.375, 4.25, 4.40625, 4.40625, 4.40625, 4.375, 4.3125, 4.375, 4.3125, 4.25, 4.3125, 4.21875, 4.1875, 4.40625, 4.34375, 4.21875, 4.28125, 4.3125, 4.375, 4.3125, 4.25, 4.1875, 4.28125, 4.125, 4.1875, 4.1875, 4.25, 4.25, 4.1875, 4.21875, 4.28125, 4.15625, 4.3125, 4.1875, 4.15625, 4.21875, 4.09375, 4.15625, 4.21875, 4.3125, 4.21875, 4.15625, 4.15625, 4.125, 4.09375, 4.21875, 4.15625, 4.03125, 4.25, 4.15625, 4.28125, 4.09375, 4.15625, 4.1875, 4.15625, 4.21875, 4.1875, 4.1875, 4.25, 4.0625, 4.25, 4.1875, 4.0625, 4.15625, 4.15625, 4.21875, 4.15625, 4.125, 4.09375, 4.03125, 4.15625, 4.09375, 4.15625, 4.28125, 4.09375, 4.03125, 4.09375, 4.0625, 4.09375, 4.1875, 4.125, 4.09375, 4.03125, 4.0625, 4.1875, 4.03125, 4.03125, 4.0625, 4.0625, 4.0625, 4.03125, 3.984375, 4.09375, 4.125, 4.0625, 4.09375, 4.03125, 4.125, 4.09375, 4.1875, 4.0625, 4.0625, 4.09375, 4.09375, 4.09375, 4.0625, 4.0625, 4.03125, 4.0, 4.125, 4.0, 3.953125, 4.0625, 4.0625, 4.0625, 4.03125, 3.984375, 4.0625, 3.9375, 4.0, 4.125, 4.03125, 4.0, 4.0625, 4.03125, 4.0, 4.03125, 4.03125, 3.953125, 4.03125, 4.03125, 3.984375, 3.890625, 3.953125, 4.125, 3.921875, 4.03125, 3.921875, 3.96875, 3.96875, 3.953125, 4.03125, 4.09375, 4.0, 4.125, 4.03125, 4.09375, 3.921875, 3.921875, 4.03125, 3.90625, 3.828125, 3.828125, 3.90625, 4.03125, 3.984375, 3.875, 3.953125, 4.03125, 4.03125, 4.0, 4.03125, 3.90625, 3.890625, 3.953125, 3.953125, 4.0, 3.984375, 3.890625, 3.984375, 4.09375, 4.0, 3.96875, 3.921875, 4.0, 3.859375, 3.8125, 3.96875, 3.984375, 3.875, 3.953125, 3.96875, 4.0, 3.90625, 3.984375, 3.875, 3.984375, 3.859375, 3.984375, 3.9375, 4.0, 3.875, 3.96875, 3.953125, 3.9375, 3.9375, 3.953125, 3.765625, 3.953125, 3.921875, 3.9375, 3.921875, 3.8125, 3.859375, 3.84375, 3.90625, 3.71875, 3.921875, 3.765625, 3.890625, 3.90625, 4.03125, 3.90625, 3.890625, 3.953125, 3.875, 3.96875, 3.96875, 3.890625, 3.96875, 3.890625, 3.890625, 3.90625, 3.875, 3.765625, 4.03125, 4.0, 3.8125, 3.953125, 3.828125, 3.828125, 3.828125, 3.796875, 3.828125, 3.84375, 3.828125, 3.890625, 3.796875, 3.890625, 3.875, 3.90625, 3.84375, 3.90625, 3.9375, 3.859375, 3.890625, 3.921875, 3.96875, 3.921875, 3.859375, 3.875, 3.84375, 3.890625, 3.890625, 3.859375, 3.84375, 3.8125, 3.8125, 3.90625, 3.9375, 3.84375, 3.828125, 3.734375, 3.921875, 3.78125, 3.78125, 3.859375, 3.875, 3.875, 3.859375, 3.84375, 3.90625, 3.796875, 3.828125, 3.796875, 3.96875, 3.8125, 3.890625, 3.8125, 3.921875, 3.84375, 3.875, 3.765625, 3.75, 3.890625, 3.859375, 3.796875, 3.828125, 3.828125, 3.875, 3.71875, 3.984375, 3.78125, 3.78125, 3.828125, 3.796875, 3.875, 3.8125, 3.84375, 3.859375, 3.734375, 3.75, 3.84375, 3.8125, 3.875, 3.828125, 3.765625, 3.796875, 3.71875, 3.734375, 3.796875, 3.78125, 3.9375, 3.828125, 3.84375, 3.75, 3.734375, 3.796875, 3.8125, 3.71875, 3.8125, 3.78125, 3.84375, 3.890625, 3.8125, 3.8125, 3.796875, 3.78125, 3.71875, 3.75, 3.765625, 3.84375, 3.796875, 3.734375, 3.875, 3.859375, 3.8125, 3.796875, 3.671875, 3.78125, 3.765625, 3.734375, 3.796875, 3.640625, 3.734375, 3.765625, 3.796875, 3.8125, 3.875, 3.71875, 3.828125, 3.78125, 3.703125, 3.9375, 3.71875, 3.796875, 3.828125, 3.84375, 3.78125, 3.765625, 3.796875, 3.953125, 3.765625, 3.9375, 3.765625, 3.765625, 3.859375, 3.75, 3.765625, 3.765625, 3.765625, 3.890625, 3.671875, 3.8125, 3.734375, 3.84375, 3.796875, 3.84375, 3.828125, 3.828125, 3.875, 3.84375, 3.84375, 3.71875, 3.71875, 3.765625, 3.90625, 3.84375, 3.6875, 3.828125, 3.6875, 3.796875, 3.71875, 3.828125, 3.78125, 3.859375, 3.734375, 3.875, 3.75, 3.609375, 3.6875, 3.75, 3.765625, 3.78125, 3.625, 3.703125, 3.703125, 3.78125, 3.75, 3.828125, 3.8125, 3.65625, 3.734375, 3.703125, 3.8125, 3.65625, 3.734375, 3.8125, 3.65625, 3.796875, 3.828125, 3.671875, 3.765625, 3.6875, 3.75, 3.859375, 3.71875, 3.78125, 3.796875, 3.84375, 3.734375, 3.875, 3.765625, 3.828125, 3.6875, 3.921875, 3.734375, 3.734375, 3.640625, 3.671875, 3.625, 3.78125, 3.5625, 3.625, 3.703125, 3.65625, 3.8125, 3.75, 3.703125, 3.71875, 3.84375, 3.5625, 3.625, 3.765625, 3.796875, 3.734375, 3.6875, 3.71875, 3.671875, 3.703125, 3.734375, 3.671875, 3.84375, 3.578125, 3.6875, 3.71875, 3.75, 3.71875, 3.71875, 3.734375, 3.671875, 3.734375, 3.703125, 3.75, 3.765625, 3.703125, 3.734375, 3.71875, 3.71875, 3.71875, 3.625, 3.703125, 3.625, 3.71875, 3.828125, 3.765625, 3.59375, 3.640625, 3.734375, 3.671875, 3.671875, 3.703125, 3.703125, 3.625, 3.59375, 3.65625, 3.75, 3.625, 3.71875, 3.671875, 3.625, 3.609375, 3.640625, 3.78125, 3.703125, 3.71875, 3.75, 3.75, 3.71875, 3.671875, 3.75, 3.828125, 3.671875, 3.8125, 3.703125, 3.734375, 3.671875, 3.71875, 3.75, 3.671875, 3.6875, 3.78125, 3.640625, 3.71875, 3.71875, 3.59375, 3.640625, 3.828125, 3.6875, 3.671875, 3.640625, 3.75, 3.6875, 3.671875, 3.6875, 3.734375, 3.765625, 3.703125, 3.5625, 3.765625, 3.796875, 3.703125, 3.671875, 3.6875, 3.609375, 3.65625, 3.65625, 3.671875, 3.765625, 3.765625, 3.640625, 3.703125, 3.71875, 3.625, 3.734375, 3.734375, 3.671875, 3.625, 3.734375, 3.75, 3.734375, 3.734375, 3.65625, 3.703125, 3.546875, 3.640625, 3.734375, 3.640625, 3.734375, 3.703125, 3.703125, 3.734375, 3.734375, 3.8125, 3.546875, 3.765625, 3.578125, 3.65625, 3.609375, 3.5, 3.71875, 3.65625, 3.703125, 3.671875, 3.78125, 3.671875, 3.65625, 3.6875, 3.671875, 3.671875, 3.578125, 3.65625, 3.734375, 3.609375, 3.671875, 3.65625, 3.59375, 3.609375, 3.75, 3.625, 3.625, 3.65625, 3.640625, 3.703125, 3.640625, 3.59375, 3.46875, 3.625, 3.65625, 3.625, 3.6875, 3.59375, 3.6875, 3.671875, 3.59375, 3.6875, 3.640625, 3.6875, 3.671875, 3.640625, 3.640625, 3.765625, 3.734375, 3.703125, 3.640625, 3.6875, 3.640625, 3.625, 3.625, 3.8125, 3.578125, 3.53125, 3.640625, 3.8125, 3.609375, 3.625, 3.671875, 3.625, 3.75, 3.640625, 3.828125, 3.671875, 3.46875, 3.703125, 3.546875, 3.625, 3.609375, 3.546875, 3.578125, 3.671875, 3.6875, 3.515625, 3.609375, 3.609375, 3.65625, 3.59375, 3.671875, 3.5625, 3.546875, 3.71875, 3.703125, 3.5625, 3.625, 3.625, 3.6875, 3.609375, 3.6875, 3.640625, 3.46875, 3.578125, 3.609375, 3.703125, 3.578125, 3.671875, 3.71875, 3.640625, 3.609375, 3.609375, 3.625, 3.625, 3.640625, 3.5625, 3.703125, 3.59375, 3.609375, 3.65625, 3.578125, 3.53125, 3.625, 3.53125, 3.578125, 3.59375, 3.609375, 3.71875, 3.578125, 3.671875, 3.6875, 3.609375, 3.625, 3.75, 3.671875, 3.71875, 3.71875, 3.640625, 3.546875, 3.6875, 3.5625, 3.5625, 3.640625, 3.625, 3.640625, 3.625, 3.6875, 3.5625, 3.578125, 3.5625, 3.546875, 3.734375, 3.640625, 3.640625, 3.578125, 3.578125, 3.59375, 3.59375, 3.6875, 3.546875, 3.65625, 3.609375, 3.59375, 3.59375, 3.671875, 3.65625, 3.578125, 3.640625, 3.609375, 3.6875, 3.703125, 3.53125, 3.53125, 3.515625, 3.546875, 3.609375, 3.671875, 3.71875, 3.59375, 3.609375, 3.625, 3.546875, 3.609375, 3.609375, 3.546875, 3.734375, 3.671875, 3.65625, 3.578125, 3.5625, 3.59375, 3.5, 3.59375, 3.671875, 3.625, 3.609375, 3.65625, 3.59375, 3.5, 3.578125, 3.59375, 3.625, 3.5625, 3.640625, 3.671875, 3.578125, 3.671875, 3.671875, 3.59375, 3.71875, 3.65625, 3.53125, 3.546875, 3.578125, 3.625, 3.546875, 3.53125, 3.609375, 3.515625, 3.578125, 3.640625, 3.5625, 3.546875, 3.609375, 3.65625, 3.578125, 3.53125, 3.5625, 3.65625, 3.609375, 3.625, 3.59375, 3.71875, 3.625, 3.765625, 3.609375, 3.578125, 3.59375, 3.546875, 3.59375, 3.484375, 3.4375, 3.578125, 3.59375, 3.671875, 3.671875, 3.546875, 3.578125, 3.5, 3.46875, 3.5625, 3.546875, 3.671875, 3.625, 3.59375, 3.609375, 3.703125, 3.453125, 3.578125, 3.71875, 3.515625, 3.515625, 3.5, 3.578125, 3.421875, 3.5625, 3.609375, 3.53125, 3.546875, 3.5625, 3.515625, 3.578125, 3.515625, 3.640625, 3.546875, 3.578125, 3.59375, 3.5625, 3.5, 3.484375, 3.484375, 3.546875, 3.65625, 3.625, 3.625, 3.578125, 3.53125, 3.515625, 3.625, 3.46875, 3.625, 3.5625, 3.578125, 3.546875, 3.59375, 3.625, 3.59375, 3.640625, 3.609375, 3.578125, 3.484375, 3.640625, 3.578125, 3.640625, 3.5625, 3.515625, 3.53125, 3.5625, 3.609375, 3.515625, 3.484375, 3.53125, 3.515625, 3.5, 3.515625, 3.53125, 3.609375, 3.4375, 3.59375, 3.5, 3.640625, 3.578125, 3.578125, 3.578125, 3.578125, 3.65625, 3.546875, 3.59375, 3.546875, 3.484375, 3.546875, 3.390625, 3.578125, 3.5625, 3.546875, 3.5625, 3.46875, 3.640625, 3.578125, 3.5625, 3.53125, 3.5625, 3.578125, 3.578125, 3.671875, 3.46875, 3.515625, 3.484375, 3.4375, 3.59375, 3.5, 3.453125, 3.4375, 3.546875, 3.515625, 3.578125, 3.515625, 3.578125, 3.5, 3.59375, 3.53125, 3.5, 3.5625, 3.4375, 3.546875, 3.578125, 3.390625, 3.59375, 3.578125, 3.578125, 3.546875, 3.46875, 3.390625, 3.578125, 3.453125, 3.484375, 3.515625, 3.5, 3.5, 3.59375, 3.484375, 3.59375, 3.5625, 3.578125, 3.609375, 3.546875, 3.484375, 3.421875, 3.421875, 3.53125, 3.5, 3.609375, 3.421875, 3.546875, 3.46875, 3.515625, 3.390625, 3.46875, 3.5, 3.484375, 3.4375, 3.578125, 3.46875, 3.40625, 3.5625, 3.421875, 3.46875, 3.453125, 3.5, 3.359375, 3.484375, 3.5, 3.5, 3.59375, 3.5, 3.453125, 3.40625, 3.46875, 3.4375, 3.53125, 3.484375, 3.375, 3.4375, 3.46875, 3.453125, 3.453125, 3.53125, 3.4375, 3.515625, 3.390625, 3.53125, 3.390625, 3.53125, 3.390625, 3.46875, 3.453125, 3.515625, 3.4375, 3.375, 3.46875, 3.46875, 3.5625, 3.421875]","[56320.0, 1280.0, 1000.0, 688.0, 664.0, 608.0, 536.0, 502.0, 458.0, 416.0, 430.0, 430.0, 368.0, 334.0, 334.0, 304.0, 304.0, 278.0, 296.0, 278.0, 286.0, 260.0, 286.0, 223.0, 223.0, 216.0, 209.0, 230.0, 223.0, 230.0, 209.0, 185.0, 191.0, 197.0, 185.0, 197.0, 197.0, 179.0, 185.0, 163.0, 179.0, 168.0, 185.0, 168.0, 158.0, 163.0, 163.0, 149.0, 153.0, 168.0, 158.0, 144.0, 168.0, 140.0, 127.0, 135.0, 131.0, 140.0, 140.0, 140.0, 127.0, 140.0, 123.0, 131.0, 144.0, 140.0, 123.0, 131.0, 149.0, 119.5, 144.0, 131.0, 123.0, 127.0, 127.0, 123.0, 119.5, 115.5, 119.5, 119.5, 112.0, 119.5, 119.5, 115.5, 108.5, 119.5, 115.5, 127.0, 112.0, 115.5, 112.0, 108.5, 119.5, 108.5, 108.5, 96.0, 112.0, 102.0, 112.0, 108.5, 108.5, 112.0, 99.0, 102.0, 105.5, 96.0, 93.0, 96.0, 99.0, 96.0, 99.0, 93.0, 87.5, 93.0, 84.5, 79.5, 90.0, 96.0, 93.0, 87.5, 82.0, 82.0, 87.5, 90.0, 90.0, 84.5, 77.0, 82.0, 82.0, 87.5, 79.5, 79.5, 74.5, 90.0, 82.0, 90.0, 82.0, 82.0, 90.0, 79.5, 79.5, 77.0, 70.0, 87.5, 74.5, 82.0, 74.5, 77.0, 66.0, 84.5, 79.5, 70.0, 82.0, 82.0, 82.0, 79.5, 74.5, 79.5, 74.5, 70.0, 74.5, 68.0, 66.0, 82.0, 77.0, 68.0, 72.5, 74.5, 79.5, 74.5, 70.0, 66.0, 72.5, 62.0, 66.0, 66.0, 70.0, 70.0, 66.0, 68.0, 72.5, 64.0, 74.5, 66.0, 64.0, 68.0, 60.0, 64.0, 68.0, 74.5, 68.0, 64.0, 64.0, 62.0, 60.0, 68.0, 64.0, 56.25, 70.0, 64.0, 72.5, 60.0, 64.0, 66.0, 64.0, 68.0, 66.0, 66.0, 70.0, 58.25, 70.0, 66.0, 58.25, 64.0, 64.0, 68.0, 64.0, 62.0, 60.0, 56.25, 64.0, 60.0, 64.0, 72.5, 60.0, 56.25, 60.0, 58.25, 60.0, 66.0, 62.0, 60.0, 56.25, 58.25, 66.0, 56.25, 56.25, 58.25, 58.25, 58.25, 56.25, 53.75, 60.0, 62.0, 58.25, 60.0, 56.25, 62.0, 60.0, 66.0, 58.25, 58.25, 60.0, 60.0, 60.0, 58.25, 58.25, 56.25, 54.75, 62.0, 54.75, 52.25, 58.25, 58.25, 58.25, 56.25, 53.75, 58.25, 51.25, 54.75, 62.0, 56.25, 54.75, 58.25, 56.25, 54.75, 56.25, 56.25, 52.25, 56.25, 56.25, 53.75, 49.0, 52.25, 62.0, 50.5, 56.25, 50.5, 53.0, 53.0, 52.25, 56.25, 60.0, 54.75, 62.0, 56.25, 60.0, 50.5, 50.5, 56.25, 49.75, 46.0, 46.0, 49.75, 56.25, 53.75, 48.25, 52.25, 56.25, 56.25, 54.75, 56.25, 49.75, 49.0, 52.25, 52.25, 54.75, 53.75, 49.0, 53.75, 60.0, 54.75, 53.0, 50.5, 54.75, 47.5, 45.25, 53.0, 53.75, 48.25, 52.25, 53.0, 54.75, 49.75, 53.75, 48.25, 53.75, 47.5, 53.75, 51.25, 54.75, 48.25, 53.0, 52.25, 51.25, 51.25, 52.25, 43.25, 52.25, 50.5, 51.25, 50.5, 45.25, 47.5, 46.75, 49.75, 41.25, 50.5, 43.25, 49.0, 49.75, 56.25, 49.75, 49.0, 52.25, 48.25, 53.0, 53.0, 49.0, 53.0, 49.0, 49.0, 49.75, 48.25, 43.25, 56.25, 54.75, 45.25, 52.25, 46.0, 46.0, 46.0, 44.5, 46.0, 46.75, 46.0, 49.0, 44.5, 49.0, 48.25, 49.75, 46.75, 49.75, 51.25, 47.5, 49.0, 50.5, 53.0, 50.5, 47.5, 48.25, 46.75, 49.0, 49.0, 47.5, 46.75, 45.25, 45.25, 49.75, 51.25, 46.75, 46.0, 42.0, 50.5, 44.0, 44.0, 47.5, 48.25, 48.25, 47.5, 46.75, 49.75, 44.5, 46.0, 44.5, 53.0, 45.25, 49.0, 45.25, 50.5, 46.75, 48.25, 43.25, 42.5, 49.0, 47.5, 44.5, 46.0, 46.0, 48.25, 41.25, 53.75, 44.0, 44.0, 46.0, 44.5, 48.25, 45.25, 46.75, 47.5, 42.0, 42.5, 46.75, 45.25, 48.25, 46.0, 43.25, 44.5, 41.25, 42.0, 44.5, 44.0, 51.25, 46.0, 46.75, 42.5, 42.0, 44.5, 45.25, 41.25, 45.25, 44.0, 46.75, 49.0, 45.25, 45.25, 44.5, 44.0, 41.25, 42.5, 43.25, 46.75, 44.5, 42.0, 48.25, 47.5, 45.25, 44.5, 39.25, 44.0, 43.25, 42.0, 44.5, 38.25, 42.0, 43.25, 44.5, 45.25, 48.25, 41.25, 46.0, 44.0, 40.5, 51.25, 41.25, 44.5, 46.0, 46.75, 44.0, 43.25, 44.5, 52.25, 43.25, 51.25, 43.25, 43.25, 47.5, 42.5, 43.25, 43.25, 43.25, 49.0, 39.25, 45.25, 42.0, 46.75, 44.5, 46.75, 46.0, 46.0, 48.25, 46.75, 46.75, 41.25, 41.25, 43.25, 49.75, 46.75, 40.0, 46.0, 40.0, 44.5, 41.25, 46.0, 44.0, 47.5, 42.0, 48.25, 42.5, 37.0, 40.0, 42.5, 43.25, 44.0, 37.5, 40.5, 40.5, 44.0, 42.5, 46.0, 45.25, 38.75, 42.0, 40.5, 45.25, 38.75, 42.0, 45.25, 38.75, 44.5, 46.0, 39.25, 43.25, 40.0, 42.5, 47.5, 41.25, 44.0, 44.5, 46.75, 42.0, 48.25, 43.25, 46.0, 40.0, 50.5, 42.0, 42.0, 38.25, 39.25, 37.5, 44.0, 35.25, 37.5, 40.5, 38.75, 45.25, 42.5, 40.5, 41.25, 46.75, 35.25, 37.5, 43.25, 44.5, 42.0, 40.0, 41.25, 39.25, 40.5, 42.0, 39.25, 46.75, 35.75, 40.0, 41.25, 42.5, 41.25, 41.25, 42.0, 39.25, 42.0, 40.5, 42.5, 43.25, 40.5, 42.0, 41.25, 41.25, 41.25, 37.5, 40.5, 37.5, 41.25, 46.0, 43.25, 36.5, 38.25, 42.0, 39.25, 39.25, 40.5, 40.5, 37.5, 36.5, 38.75, 42.5, 37.5, 41.25, 39.25, 37.5, 37.0, 38.25, 44.0, 40.5, 41.25, 42.5, 42.5, 41.25, 39.25, 42.5, 46.0, 39.25, 45.25, 40.5, 42.0, 39.25, 41.25, 42.5, 39.25, 40.0, 44.0, 38.25, 41.25, 41.25, 36.5, 38.25, 46.0, 40.0, 39.25, 38.25, 42.5, 40.0, 39.25, 40.0, 42.0, 43.25, 40.5, 35.25, 43.25, 44.5, 40.5, 39.25, 40.0, 37.0, 38.75, 38.75, 39.25, 43.25, 43.25, 38.25, 40.5, 41.25, 37.5, 42.0, 42.0, 39.25, 37.5, 42.0, 42.5, 42.0, 42.0, 38.75, 40.5, 34.75, 38.25, 42.0, 38.25, 42.0, 40.5, 40.5, 42.0, 42.0, 45.25, 34.75, 43.25, 35.75, 38.75, 37.0, 33.25, 41.25, 38.75, 40.5, 39.25, 44.0, 39.25, 38.75, 40.0, 39.25, 39.25, 35.75, 38.75, 42.0, 37.0, 39.25, 38.75, 36.5, 37.0, 42.5, 37.5, 37.5, 38.75, 38.25, 40.5, 38.25, 36.5, 32.0, 37.5, 38.75, 37.5, 40.0, 36.5, 40.0, 39.25, 36.5, 40.0, 38.25, 40.0, 39.25, 38.25, 38.25, 43.25, 42.0, 40.5, 38.25, 40.0, 38.25, 37.5, 37.5, 45.25, 35.75, 34.25, 38.25, 45.25, 37.0, 37.5, 39.25, 37.5, 42.5, 38.25, 46.0, 39.25, 32.0, 40.5, 34.75, 37.5, 37.0, 34.75, 35.75, 39.25, 40.0, 33.75, 37.0, 37.0, 38.75, 36.5, 39.25, 35.25, 34.75, 41.25, 40.5, 35.25, 37.5, 37.5, 40.0, 37.0, 40.0, 38.25, 32.0, 35.75, 37.0, 40.5, 35.75, 39.25, 41.25, 38.25, 37.0, 37.0, 37.5, 37.5, 38.25, 35.25, 40.5, 36.5, 37.0, 38.75, 35.75, 34.25, 37.5, 34.25, 35.75, 36.5, 37.0, 41.25, 35.75, 39.25, 40.0, 37.0, 37.5, 42.5, 39.25, 41.25, 41.25, 38.25, 34.75, 40.0, 35.25, 35.25, 38.25, 37.5, 38.25, 37.5, 40.0, 35.25, 35.75, 35.25, 34.75, 42.0, 38.25, 38.25, 35.75, 35.75, 36.5, 36.5, 40.0, 34.75, 38.75, 37.0, 36.5, 36.5, 39.25, 38.75, 35.75, 38.25, 37.0, 40.0, 40.5, 34.25, 34.25, 33.75, 34.75, 37.0, 39.25, 41.25, 36.5, 37.0, 37.5, 34.75, 37.0, 37.0, 34.75, 42.0, 39.25, 38.75, 35.75, 35.25, 36.5, 33.25, 36.5, 39.25, 37.5, 37.0, 38.75, 36.5, 33.25, 35.75, 36.5, 37.5, 35.25, 38.25, 39.25, 35.75, 39.25, 39.25, 36.5, 41.25, 38.75, 34.25, 34.75, 35.75, 37.5, 34.75, 34.25, 37.0, 33.75, 35.75, 38.25, 35.25, 34.75, 37.0, 38.75, 35.75, 34.25, 35.25, 38.75, 37.0, 37.5, 36.5, 41.25, 37.5, 43.25, 37.0, 35.75, 36.5, 34.75, 36.5, 32.5, 31.125, 35.75, 36.5, 39.25, 39.25, 34.75, 35.75, 33.25, 32.0, 35.25, 34.75, 39.25, 37.5, 36.5, 37.0, 40.5, 31.625, 35.75, 41.25, 33.75, 33.75, 33.25, 35.75, 30.625, 35.25, 37.0, 34.25, 34.75, 35.25, 33.75, 35.75, 33.75, 38.25, 34.75, 35.75, 36.5, 35.25, 33.25, 32.5, 32.5, 34.75, 38.75, 37.5, 37.5, 35.75, 34.25, 33.75, 37.5, 32.0, 37.5, 35.25, 35.75, 34.75, 36.5, 37.5, 36.5, 38.25, 37.0, 35.75, 32.5, 38.25, 35.75, 38.25, 35.25, 33.75, 34.25, 35.25, 37.0, 33.75, 32.5, 34.25, 33.75, 33.25, 33.75, 34.25, 37.0, 31.125, 36.5, 33.25, 38.25, 35.75, 35.75, 35.75, 35.75, 38.75, 34.75, 36.5, 34.75, 32.5, 34.75, 29.75, 35.75, 35.25, 34.75, 35.25, 32.0, 38.25, 35.75, 35.25, 34.25, 35.25, 35.75, 35.75, 39.25, 32.0, 33.75, 32.5, 31.125, 36.5, 33.25, 31.625, 31.125, 34.75, 33.75, 35.75, 33.75, 35.75, 33.25, 36.5, 34.25, 33.25, 35.25, 31.125, 34.75, 35.75, 29.75, 36.5, 35.75, 35.75, 34.75, 32.0, 29.75, 35.75, 31.625, 32.5, 33.75, 33.25, 33.25, 36.5, 32.5, 36.5, 35.25, 35.75, 37.0, 34.75, 32.5, 30.625, 30.625, 34.25, 33.25, 37.0, 30.625, 34.75, 32.0, 33.75, 29.75, 32.0, 33.25, 32.5, 31.125, 35.75, 32.0, 30.125, 35.25, 30.625, 32.0, 31.625, 33.25, 28.75, 32.5, 33.25, 33.25, 36.5, 33.25, 31.625, 30.125, 32.0, 31.125, 34.25, 32.5, 29.25, 31.125, 32.0, 31.625, 31.625, 34.25, 31.125, 33.75, 29.75, 34.25, 29.75, 34.25, 29.75, 32.0, 31.625, 33.75, 31.125, 29.25, 32.0, 32.0, 35.25, 30.625]","[10.9375, 7.40625, 7.1875, 6.84375, 6.875, 6.78125, 6.6875, 6.65625, 6.5625, 6.46875, 6.5, 6.53125, 6.375, 6.3125, 6.3125, 6.21875, 6.25, 6.15625, 6.21875, 6.125, 6.1875, 6.125, 6.1875, 6.0, 6.0, 5.96875, 5.90625, 6.03125, 5.96875, 6.03125, 5.9375, 5.8125, 5.84375, 5.90625, 5.8125, 5.90625, 5.84375, 5.8125, 5.84375, 5.75, 5.8125, 5.75, 5.84375, 5.78125, 5.71875, 5.75, 5.71875, 5.65625, 5.6875, 5.75, 5.71875, 5.65625, 5.78125, 5.625, 5.53125, 5.53125, 5.59375, 5.625, 5.59375, 5.625, 5.5625, 5.625, 5.53125, 5.59375, 5.6875, 5.625, 5.53125, 5.59375, 5.65625, 5.5, 5.65625, 5.59375, 5.5625, 5.5625, 5.53125, 5.53125, 5.5, 5.46875, 5.5, 5.5, 5.46875, 5.53125, 5.53125, 5.5, 5.40625, 5.5, 5.5, 5.5625, 5.46875, 5.5, 5.46875, 5.40625, 5.5, 5.4375, 5.4375, 5.3125, 5.4375, 5.40625, 5.46875, 5.40625, 5.4375, 5.46875, 5.375, 5.40625, 5.40625, 5.34375, 5.3125, 5.34375, 5.375, 5.34375, 5.375, 5.28125, 5.28125, 5.3125, 5.21875, 5.1875, 5.28125, 5.28125, 5.28125, 5.28125, 5.25, 5.21875, 5.28125, 5.28125, 5.28125, 5.21875, 5.15625, 5.1875, 5.1875, 5.25, 5.1875, 5.21875, 5.125, 5.28125, 5.1875, 5.3125, 5.21875, 5.21875, 5.28125, 5.25, 5.1875, 5.125, 5.0625, 5.28125, 5.125, 5.21875, 5.125, 5.15625, 5.03125, 5.21875, 5.1875, 5.09375, 5.1875, 5.21875, 5.28125, 5.1875, 5.125, 5.1875, 5.125, 5.09375, 5.15625, 5.0625, 5.0, 5.21875, 5.1875, 5.09375, 5.15625, 5.15625, 5.15625, 5.15625, 5.09375, 5.03125, 5.09375, 4.96875, 5.03125, 5.0625, 5.09375, 5.0625, 4.96875, 5.09375, 5.15625, 5.0, 5.15625, 5.03125, 5.03125, 5.0625, 5.0, 5.03125, 5.03125, 5.15625, 5.0625, 5.0, 5.03125, 5.0, 4.9375, 5.09375, 5.0, 4.90625, 5.09375, 5.03125, 5.09375, 5.0, 5.0625, 5.09375, 5.0, 5.0625, 5.03125, 5.0625, 5.09375, 4.90625, 5.125, 5.03125, 4.90625, 5.03125, 5.03125, 5.0625, 5.0, 4.9375, 4.9375, 4.9375, 5.0625, 4.96875, 5.0625, 5.125, 4.96875, 4.9375, 4.96875, 4.9375, 4.96875, 5.0625, 5.0, 5.0, 4.9375, 4.96875, 5.03125, 4.90625, 4.90625, 4.90625, 4.9375, 4.96875, 4.9375, 4.90625, 4.9375, 5.0, 4.96875, 4.96875, 4.96875, 4.96875, 4.9375, 5.03125, 4.9375, 4.9375, 4.9375, 5.0, 4.96875, 4.96875, 5.0, 4.90625, 4.90625, 5.03125, 4.875, 4.875, 4.96875, 4.9375, 4.96875, 4.96875, 4.875, 4.96875, 4.8125, 4.90625, 5.0, 4.90625, 4.90625, 4.9375, 4.90625, 4.90625, 4.90625, 4.90625, 4.90625, 4.9375, 4.875, 4.90625, 4.84375, 4.84375, 4.96875, 4.875, 4.9375, 4.84375, 4.875, 4.84375, 4.84375, 4.9375, 4.96875, 4.90625, 5.0, 4.9375, 4.96875, 4.84375, 4.84375, 4.9375, 4.84375, 4.75, 4.71875, 4.8125, 4.875, 4.875, 4.75, 4.8125, 4.90625, 4.90625, 4.90625, 4.9375, 4.8125, 4.8125, 4.90625, 4.875, 4.9375, 4.90625, 4.8125, 4.875, 4.96875, 4.90625, 4.875, 4.84375, 4.90625, 4.78125, 4.75, 4.875, 4.875, 4.78125, 4.875, 4.84375, 4.90625, 4.8125, 4.875, 4.8125, 4.875, 4.78125, 4.875, 4.84375, 4.90625, 4.78125, 4.8125, 4.875, 4.84375, 4.875, 4.84375, 4.65625, 4.84375, 4.875, 4.84375, 4.84375, 4.71875, 4.84375, 4.75, 4.8125, 4.625, 4.875, 4.71875, 4.8125, 4.78125, 4.96875, 4.78125, 4.78125, 4.875, 4.78125, 4.875, 4.875, 4.84375, 4.90625, 4.78125, 4.78125, 4.8125, 4.78125, 4.6875, 4.9375, 4.875, 4.71875, 4.875, 4.75, 4.71875, 4.75, 4.71875, 4.75, 4.75, 4.75, 4.78125, 4.71875, 4.84375, 4.78125, 4.8125, 4.8125, 4.84375, 4.875, 4.78125, 4.8125, 4.8125, 4.875, 4.84375, 4.78125, 4.8125, 4.75, 4.8125, 4.8125, 4.78125, 4.78125, 4.75, 4.75, 4.8125, 4.84375, 4.78125, 4.78125, 4.65625, 4.84375, 4.75, 4.75, 4.8125, 4.78125, 4.78125, 4.8125, 4.75, 4.84375, 4.75, 4.75, 4.75, 4.875, 4.71875, 4.8125, 4.71875, 4.8125, 4.8125, 4.8125, 4.6875, 4.71875, 4.8125, 4.78125, 4.75, 4.71875, 4.75, 4.8125, 4.6875, 4.9375, 4.6875, 4.71875, 4.75, 4.71875, 4.8125, 4.75, 4.8125, 4.8125, 4.6875, 4.71875, 4.78125, 4.78125, 4.78125, 4.71875, 4.6875, 4.75, 4.65625, 4.71875, 4.71875, 4.71875, 4.875, 4.78125, 4.78125, 4.6875, 4.6875, 4.71875, 4.71875, 4.6875, 4.6875, 4.71875, 4.75, 4.8125, 4.75, 4.75, 4.71875, 4.6875, 4.625, 4.75, 4.71875, 4.78125, 4.71875, 4.65625, 4.75, 4.78125, 4.75, 4.6875, 4.625, 4.71875, 4.71875, 4.65625, 4.71875, 4.59375, 4.625, 4.71875, 4.75, 4.75, 4.8125, 4.65625, 4.78125, 4.71875, 4.65625, 4.875, 4.65625, 4.6875, 4.75, 4.78125, 4.71875, 4.71875, 4.71875, 4.84375, 4.65625, 4.84375, 4.75, 4.75, 4.78125, 4.6875, 4.6875, 4.75, 4.6875, 4.75, 4.625, 4.71875, 4.6875, 4.75, 4.75, 4.78125, 4.75, 4.71875, 4.8125, 4.75, 4.78125, 4.65625, 4.65625, 4.65625, 4.8125, 4.78125, 4.625, 4.78125, 4.65625, 4.71875, 4.6875, 4.75, 4.6875, 4.8125, 4.6875, 4.78125, 4.65625, 4.59375, 4.625, 4.71875, 4.6875, 4.6875, 4.5625, 4.65625, 4.625, 4.71875, 4.65625, 4.75, 4.75, 4.625, 4.6875, 4.65625, 4.6875, 4.625, 4.65625, 4.78125, 4.65625, 4.75, 4.75, 4.625, 4.71875, 4.625, 4.71875, 4.75, 4.625, 4.71875, 4.71875, 4.78125, 4.71875, 4.78125, 4.71875, 4.75, 4.625, 4.84375, 4.6875, 4.6875, 4.625, 4.625, 4.59375, 4.71875, 4.5, 4.5625, 4.625, 4.5625, 4.78125, 4.71875, 4.65625, 4.6875, 4.84375, 4.5625, 4.625, 4.75, 4.75, 4.65625, 4.59375, 4.65625, 4.625, 4.65625, 4.71875, 4.65625, 4.78125, 4.53125, 4.625, 4.71875, 4.65625, 4.6875, 4.6875, 4.6875, 4.5625, 4.6875, 4.65625, 4.6875, 4.65625, 4.71875, 4.65625, 4.6875, 4.65625, 4.6875, 4.59375, 4.65625, 4.59375, 4.625, 4.71875, 4.6875, 4.53125, 4.625, 4.6875, 4.625, 4.65625, 4.65625, 4.65625, 4.5625, 4.53125, 4.5625, 4.6875, 4.59375, 4.65625, 4.625, 4.59375, 4.5625, 4.59375, 4.71875, 4.625, 4.65625, 4.6875, 4.6875, 4.6875, 4.59375, 4.6875, 4.75, 4.65625, 4.8125, 4.65625, 4.6875, 4.625, 4.6875, 4.6875, 4.625, 4.625, 4.6875, 4.59375, 4.65625, 4.71875, 4.59375, 4.59375, 4.71875, 4.65625, 4.65625, 4.59375, 4.6875, 4.65625, 4.65625, 4.59375, 4.71875, 4.71875, 4.65625, 4.53125, 4.75, 4.71875, 4.625, 4.59375, 4.625, 4.59375, 4.625, 4.625, 4.65625, 4.6875, 4.71875, 4.625, 4.65625, 4.6875, 4.5625, 4.6875, 4.65625, 4.65625, 4.59375, 4.71875, 4.6875, 4.6875, 4.65625, 4.59375, 4.65625, 4.5625, 4.59375, 4.6875, 4.59375, 4.6875, 4.71875, 4.6875, 4.6875, 4.71875, 4.75, 4.53125, 4.71875, 4.5625, 4.625, 4.5625, 4.5, 4.65625, 4.59375, 4.625, 4.625, 4.75, 4.65625, 4.59375, 4.625, 4.625, 4.65625, 4.5625, 4.59375, 4.6875, 4.59375, 4.625, 4.59375, 4.5625, 4.59375, 4.71875, 4.59375, 4.625, 4.625, 4.625, 4.625, 4.59375, 4.59375, 4.4375, 4.625, 4.625, 4.5625, 4.65625, 4.59375, 4.65625, 4.65625, 4.5625, 4.65625, 4.625, 4.6875, 4.625, 4.59375, 4.59375, 4.6875, 4.6875, 4.65625, 4.59375, 4.625, 4.625, 4.625, 4.625, 4.78125, 4.53125, 4.5, 4.59375, 4.75, 4.59375, 4.59375, 4.65625, 4.625, 4.71875, 4.59375, 4.78125, 4.625, 4.5, 4.65625, 4.53125, 4.5625, 4.59375, 4.5625, 4.53125, 4.59375, 4.65625, 4.46875, 4.59375, 4.625, 4.625, 4.59375, 4.65625, 4.5, 4.53125, 4.6875, 4.65625, 4.53125, 4.59375, 4.59375, 4.625, 4.59375, 4.65625, 4.625, 4.46875, 4.59375, 4.59375, 4.6875, 4.5625, 4.625, 4.65625, 4.59375, 4.59375, 4.59375, 4.5625, 4.5625, 4.59375, 4.53125, 4.625, 4.5625, 4.625, 4.625, 4.5625, 4.5, 4.625, 4.5, 4.5625, 4.625, 4.5625, 4.6875, 4.5625, 4.625, 4.625, 4.59375, 4.5625, 4.6875, 4.65625, 4.6875, 4.65625, 4.59375, 4.5, 4.59375, 4.5625, 4.53125, 4.59375, 4.625, 4.5625, 4.5625, 4.65625, 4.5, 4.5625, 4.5625, 4.53125, 4.6875, 4.625, 4.5625, 4.5, 4.5625, 4.5625, 4.5625, 4.625, 4.5, 4.625, 4.5625, 4.5625, 4.5625, 4.65625, 4.59375, 4.59375, 4.625, 4.59375, 4.6875, 4.65625, 4.53125, 4.53125, 4.53125, 4.53125, 4.5625, 4.625, 4.65625, 4.5625, 4.625, 4.5625, 4.5, 4.5625, 4.59375, 4.5625, 4.6875, 4.625, 4.59375, 4.5625, 4.53125, 4.59375, 4.46875, 4.5625, 4.65625, 4.625, 4.625, 4.625, 4.5625, 4.46875, 4.5625, 4.5625, 4.59375, 4.53125, 4.59375, 4.59375, 4.5625, 4.625, 4.625, 4.5625, 4.65625, 4.5625, 4.46875, 4.5, 4.5625, 4.59375, 4.53125, 4.53125, 4.5625, 4.5, 4.5625, 4.59375, 4.5, 4.53125, 4.5625, 4.625, 4.5625, 4.53125, 4.53125, 4.625, 4.5625, 4.59375, 4.5625, 4.6875, 4.5625, 4.6875, 4.625, 4.5625, 4.5625, 4.5, 4.5625, 4.5, 4.4375, 4.5625, 4.53125, 4.625, 4.65625, 4.53125, 4.5625, 4.46875, 4.4375, 4.53125, 4.5, 4.625, 4.59375, 4.5625, 4.625, 4.625, 4.4375, 4.5625, 4.6875, 4.5, 4.5, 4.46875, 4.53125, 4.4375, 4.5625, 4.59375, 4.5625, 4.53125, 4.53125, 4.53125, 4.5625, 4.5625, 4.625, 4.53125, 4.53125, 4.5625, 4.53125, 4.53125, 4.53125, 4.4375, 4.5, 4.65625, 4.59375, 4.5625, 4.5625, 4.5, 4.46875, 4.625, 4.4375, 4.59375, 4.5, 4.5625, 4.53125, 4.5625, 4.59375, 4.5625, 4.625, 4.625, 4.53125, 4.4375, 4.625, 4.5625, 4.59375, 4.5625, 4.5, 4.5, 4.5625, 4.53125, 4.53125, 4.46875, 4.5, 4.5, 4.46875, 4.46875, 4.5, 4.5625, 4.46875, 4.5625, 4.5, 4.5625, 4.59375, 4.59375, 4.5625, 4.5625, 4.625, 4.59375, 4.59375, 4.5625, 4.4375, 4.53125, 4.375, 4.53125, 4.5625, 4.53125, 4.5625, 4.4375, 4.625, 4.53125, 4.5625, 4.5, 4.53125, 4.5625, 4.53125, 4.65625, 4.4375, 4.5, 4.46875, 4.4375, 4.5625, 4.46875, 4.4375, 4.40625, 4.53125, 4.46875, 4.5625, 4.53125, 4.59375, 4.46875, 4.5625, 4.5, 4.5, 4.5625, 4.46875, 4.53125, 4.5625, 4.40625, 4.59375, 4.5625, 4.53125, 4.5625, 4.5, 4.375, 4.5625, 4.46875, 4.4375, 4.5, 4.5, 4.46875, 4.59375, 4.5, 4.53125, 4.5625, 4.5625, 4.59375, 4.5625, 4.46875, 4.375, 4.40625, 4.46875, 4.46875, 4.625, 4.40625, 4.5625, 4.40625, 4.5, 4.375, 4.46875, 4.53125, 4.46875, 4.4375, 4.53125, 4.46875, 4.40625, 4.5625, 4.40625, 4.46875, 4.4375, 4.46875, 4.375, 4.46875, 4.5, 4.53125, 4.53125, 4.53125, 4.5, 4.4375, 4.46875, 4.4375, 4.5625, 4.46875, 4.40625, 4.40625, 4.4375, 4.46875, 4.46875, 4.5, 4.40625, 4.5, 4.375, 4.53125, 4.40625, 4.53125, 4.34375, 4.46875, 4.40625, 4.46875, 4.4375, 4.40625, 4.5, 4.4375, 4.5, 4.40625]","[56320.0, 1648.0, 1328.0, 940.0, 968.0, 884.0, 804.0, 780.0, 708.0, 644.0, 664.0, 688.0, 588.0, 552.0, 552.0, 502.0, 520.0, 472.0, 502.0, 458.0, 488.0, 458.0, 488.0, 404.0, 404.0, 392.0, 368.0, 416.0, 392.0, 416.0, 380.0, 334.0, 346.0, 368.0, 334.0, 368.0, 346.0, 334.0, 346.0, 314.0, 334.0, 314.0, 346.0, 324.0, 304.0, 314.0, 304.0, 286.0, 296.0, 314.0, 304.0, 286.0, 324.0, 278.0, 253.0, 253.0, 270.0, 278.0, 270.0, 278.0, 260.0, 278.0, 253.0, 270.0, 296.0, 278.0, 253.0, 270.0, 286.0, 245.0, 286.0, 270.0, 260.0, 260.0, 253.0, 253.0, 245.0, 237.0, 245.0, 245.0, 237.0, 253.0, 253.0, 245.0, 223.0, 245.0, 245.0, 260.0, 237.0, 245.0, 237.0, 223.0, 245.0, 230.0, 230.0, 203.0, 230.0, 223.0, 237.0, 223.0, 230.0, 237.0, 216.0, 223.0, 223.0, 209.0, 203.0, 209.0, 216.0, 209.0, 216.0, 197.0, 197.0, 203.0, 185.0, 179.0, 197.0, 197.0, 197.0, 197.0, 191.0, 185.0, 197.0, 197.0, 197.0, 185.0, 174.0, 179.0, 179.0, 191.0, 179.0, 185.0, 168.0, 197.0, 179.0, 203.0, 185.0, 185.0, 197.0, 191.0, 179.0, 168.0, 158.0, 197.0, 168.0, 185.0, 168.0, 174.0, 153.0, 185.0, 179.0, 163.0, 179.0, 185.0, 197.0, 179.0, 168.0, 179.0, 168.0, 163.0, 174.0, 158.0, 149.0, 185.0, 179.0, 163.0, 174.0, 174.0, 174.0, 174.0, 163.0, 153.0, 163.0, 144.0, 153.0, 158.0, 163.0, 158.0, 144.0, 163.0, 174.0, 149.0, 174.0, 153.0, 153.0, 158.0, 149.0, 153.0, 153.0, 174.0, 158.0, 149.0, 153.0, 149.0, 140.0, 163.0, 149.0, 135.0, 163.0, 153.0, 163.0, 149.0, 158.0, 163.0, 149.0, 158.0, 153.0, 158.0, 163.0, 135.0, 168.0, 153.0, 135.0, 153.0, 153.0, 158.0, 149.0, 140.0, 140.0, 140.0, 158.0, 144.0, 158.0, 168.0, 144.0, 140.0, 144.0, 140.0, 144.0, 158.0, 149.0, 149.0, 140.0, 144.0, 153.0, 135.0, 135.0, 135.0, 140.0, 144.0, 140.0, 135.0, 140.0, 149.0, 144.0, 144.0, 144.0, 144.0, 140.0, 153.0, 140.0, 140.0, 140.0, 149.0, 144.0, 144.0, 149.0, 135.0, 135.0, 153.0, 131.0, 131.0, 144.0, 140.0, 144.0, 144.0, 131.0, 144.0, 123.0, 135.0, 149.0, 135.0, 135.0, 140.0, 135.0, 135.0, 135.0, 135.0, 135.0, 140.0, 131.0, 135.0, 127.0, 127.0, 144.0, 131.0, 140.0, 127.0, 131.0, 127.0, 127.0, 140.0, 144.0, 135.0, 149.0, 140.0, 144.0, 127.0, 127.0, 140.0, 127.0, 115.5, 112.0, 123.0, 131.0, 131.0, 115.5, 123.0, 135.0, 135.0, 135.0, 140.0, 123.0, 123.0, 135.0, 131.0, 140.0, 135.0, 123.0, 131.0, 144.0, 135.0, 131.0, 127.0, 135.0, 119.5, 115.5, 131.0, 131.0, 119.5, 131.0, 127.0, 135.0, 123.0, 131.0, 123.0, 131.0, 119.5, 131.0, 127.0, 135.0, 119.5, 123.0, 131.0, 127.0, 131.0, 127.0, 105.5, 127.0, 131.0, 127.0, 127.0, 112.0, 127.0, 115.5, 123.0, 102.0, 131.0, 112.0, 123.0, 119.5, 144.0, 119.5, 119.5, 131.0, 119.5, 131.0, 131.0, 127.0, 135.0, 119.5, 119.5, 123.0, 119.5, 108.5, 140.0, 131.0, 112.0, 131.0, 115.5, 112.0, 115.5, 112.0, 115.5, 115.5, 115.5, 119.5, 112.0, 127.0, 119.5, 123.0, 123.0, 127.0, 131.0, 119.5, 123.0, 123.0, 131.0, 127.0, 119.5, 123.0, 115.5, 123.0, 123.0, 119.5, 119.5, 115.5, 115.5, 123.0, 127.0, 119.5, 119.5, 105.5, 127.0, 115.5, 115.5, 123.0, 119.5, 119.5, 123.0, 115.5, 127.0, 115.5, 115.5, 115.5, 131.0, 112.0, 123.0, 112.0, 123.0, 123.0, 123.0, 108.5, 112.0, 123.0, 119.5, 115.5, 112.0, 115.5, 123.0, 108.5, 140.0, 108.5, 112.0, 115.5, 112.0, 123.0, 115.5, 123.0, 123.0, 108.5, 112.0, 119.5, 119.5, 119.5, 112.0, 108.5, 115.5, 105.5, 112.0, 112.0, 112.0, 131.0, 119.5, 119.5, 108.5, 108.5, 112.0, 112.0, 108.5, 108.5, 112.0, 115.5, 123.0, 115.5, 115.5, 112.0, 108.5, 102.0, 115.5, 112.0, 119.5, 112.0, 105.5, 115.5, 119.5, 115.5, 108.5, 102.0, 112.0, 112.0, 105.5, 112.0, 99.0, 102.0, 112.0, 115.5, 115.5, 123.0, 105.5, 119.5, 112.0, 105.5, 131.0, 105.5, 108.5, 115.5, 119.5, 112.0, 112.0, 112.0, 127.0, 105.5, 127.0, 115.5, 115.5, 119.5, 108.5, 108.5, 115.5, 108.5, 115.5, 102.0, 112.0, 108.5, 115.5, 115.5, 119.5, 115.5, 112.0, 123.0, 115.5, 119.5, 105.5, 105.5, 105.5, 123.0, 119.5, 102.0, 119.5, 105.5, 112.0, 108.5, 115.5, 108.5, 123.0, 108.5, 119.5, 105.5, 99.0, 102.0, 112.0, 108.5, 108.5, 96.0, 105.5, 102.0, 112.0, 105.5, 115.5, 115.5, 102.0, 108.5, 105.5, 108.5, 102.0, 105.5, 119.5, 105.5, 115.5, 115.5, 102.0, 112.0, 102.0, 112.0, 115.5, 102.0, 112.0, 112.0, 119.5, 112.0, 119.5, 112.0, 115.5, 102.0, 127.0, 108.5, 108.5, 102.0, 102.0, 99.0, 112.0, 90.0, 96.0, 102.0, 96.0, 119.5, 112.0, 105.5, 108.5, 127.0, 96.0, 102.0, 115.5, 115.5, 105.5, 99.0, 105.5, 102.0, 105.5, 112.0, 105.5, 119.5, 93.0, 102.0, 112.0, 105.5, 108.5, 108.5, 108.5, 96.0, 108.5, 105.5, 108.5, 105.5, 112.0, 105.5, 108.5, 105.5, 108.5, 99.0, 105.5, 99.0, 102.0, 112.0, 108.5, 93.0, 102.0, 108.5, 102.0, 105.5, 105.5, 105.5, 96.0, 93.0, 96.0, 108.5, 99.0, 105.5, 102.0, 99.0, 96.0, 99.0, 112.0, 102.0, 105.5, 108.5, 108.5, 108.5, 99.0, 108.5, 115.5, 105.5, 123.0, 105.5, 108.5, 102.0, 108.5, 108.5, 102.0, 102.0, 108.5, 99.0, 105.5, 112.0, 99.0, 99.0, 112.0, 105.5, 105.5, 99.0, 108.5, 105.5, 105.5, 99.0, 112.0, 112.0, 105.5, 93.0, 115.5, 112.0, 102.0, 99.0, 102.0, 99.0, 102.0, 102.0, 105.5, 108.5, 112.0, 102.0, 105.5, 108.5, 96.0, 108.5, 105.5, 105.5, 99.0, 112.0, 108.5, 108.5, 105.5, 99.0, 105.5, 96.0, 99.0, 108.5, 99.0, 108.5, 112.0, 108.5, 108.5, 112.0, 115.5, 93.0, 112.0, 96.0, 102.0, 96.0, 90.0, 105.5, 99.0, 102.0, 102.0, 115.5, 105.5, 99.0, 102.0, 102.0, 105.5, 96.0, 99.0, 108.5, 99.0, 102.0, 99.0, 96.0, 99.0, 112.0, 99.0, 102.0, 102.0, 102.0, 102.0, 99.0, 99.0, 84.5, 102.0, 102.0, 96.0, 105.5, 99.0, 105.5, 105.5, 96.0, 105.5, 102.0, 108.5, 102.0, 99.0, 99.0, 108.5, 108.5, 105.5, 99.0, 102.0, 102.0, 102.0, 102.0, 119.5, 93.0, 90.0, 99.0, 115.5, 99.0, 99.0, 105.5, 102.0, 112.0, 99.0, 119.5, 102.0, 90.0, 105.5, 93.0, 96.0, 99.0, 96.0, 93.0, 99.0, 105.5, 87.5, 99.0, 102.0, 102.0, 99.0, 105.5, 90.0, 93.0, 108.5, 105.5, 93.0, 99.0, 99.0, 102.0, 99.0, 105.5, 102.0, 87.5, 99.0, 99.0, 108.5, 96.0, 102.0, 105.5, 99.0, 99.0, 99.0, 96.0, 96.0, 99.0, 93.0, 102.0, 96.0, 102.0, 102.0, 96.0, 90.0, 102.0, 90.0, 96.0, 102.0, 96.0, 108.5, 96.0, 102.0, 102.0, 99.0, 96.0, 108.5, 105.5, 108.5, 105.5, 99.0, 90.0, 99.0, 96.0, 93.0, 99.0, 102.0, 96.0, 96.0, 105.5, 90.0, 96.0, 96.0, 93.0, 108.5, 102.0, 96.0, 90.0, 96.0, 96.0, 96.0, 102.0, 90.0, 102.0, 96.0, 96.0, 96.0, 105.5, 99.0, 99.0, 102.0, 99.0, 108.5, 105.5, 93.0, 93.0, 93.0, 93.0, 96.0, 102.0, 105.5, 96.0, 102.0, 96.0, 90.0, 96.0, 99.0, 96.0, 108.5, 102.0, 99.0, 96.0, 93.0, 99.0, 87.5, 96.0, 105.5, 102.0, 102.0, 102.0, 96.0, 87.5, 96.0, 96.0, 99.0, 93.0, 99.0, 99.0, 96.0, 102.0, 102.0, 96.0, 105.5, 96.0, 87.5, 90.0, 96.0, 99.0, 93.0, 93.0, 96.0, 90.0, 96.0, 99.0, 90.0, 93.0, 96.0, 102.0, 96.0, 93.0, 93.0, 102.0, 96.0, 99.0, 96.0, 108.5, 96.0, 108.5, 102.0, 96.0, 96.0, 90.0, 96.0, 90.0, 84.5, 96.0, 93.0, 102.0, 105.5, 93.0, 96.0, 87.5, 84.5, 93.0, 90.0, 102.0, 99.0, 96.0, 102.0, 102.0, 84.5, 96.0, 108.5, 90.0, 90.0, 87.5, 93.0, 84.5, 96.0, 99.0, 96.0, 93.0, 93.0, 93.0, 96.0, 96.0, 102.0, 93.0, 93.0, 96.0, 93.0, 93.0, 93.0, 84.5, 90.0, 105.5, 99.0, 96.0, 96.0, 90.0, 87.5, 102.0, 84.5, 99.0, 90.0, 96.0, 93.0, 96.0, 99.0, 96.0, 102.0, 102.0, 93.0, 84.5, 102.0, 96.0, 99.0, 96.0, 90.0, 90.0, 96.0, 93.0, 93.0, 87.5, 90.0, 90.0, 87.5, 87.5, 90.0, 96.0, 87.5, 96.0, 90.0, 96.0, 99.0, 99.0, 96.0, 96.0, 102.0, 99.0, 99.0, 96.0, 84.5, 93.0, 79.5, 93.0, 96.0, 93.0, 96.0, 84.5, 102.0, 93.0, 96.0, 90.0, 93.0, 96.0, 93.0, 105.5, 84.5, 90.0, 87.5, 84.5, 96.0, 87.5, 84.5, 82.0, 93.0, 87.5, 96.0, 93.0, 99.0, 87.5, 96.0, 90.0, 90.0, 96.0, 87.5, 93.0, 96.0, 82.0, 99.0, 96.0, 93.0, 96.0, 90.0, 79.5, 96.0, 87.5, 84.5, 90.0, 90.0, 87.5, 99.0, 90.0, 93.0, 96.0, 96.0, 99.0, 96.0, 87.5, 79.5, 82.0, 87.5, 87.5, 102.0, 82.0, 96.0, 82.0, 90.0, 79.5, 87.5, 93.0, 87.5, 84.5, 93.0, 87.5, 82.0, 96.0, 82.0, 87.5, 84.5, 87.5, 79.5, 87.5, 90.0, 93.0, 93.0, 93.0, 90.0, 84.5, 87.5, 84.5, 96.0, 87.5, 82.0, 82.0, 84.5, 87.5, 87.5, 90.0, 82.0, 90.0, 79.5, 93.0, 82.0, 93.0, 77.0, 87.5, 82.0, 87.5, 84.5, 82.0, 90.0, 84.5, 90.0, 82.0]","[2.7284384486847557e-05, 0.0793398842215538, 0.08676136285066605, 0.09044308215379715, 0.09722638130187988, 0.08633249998092651, 0.09502992033958435, 0.11198406666517258, 0.11488514393568039, 0.12010557949542999, 0.10412034392356873, 0.1002141535282135, 0.10941706597805023, 0.12710469961166382, 0.11791223287582397, 0.11839219182729721, 0.1228012889623642, 0.10989192128181458, 0.12864474952220917, 0.12389259785413742, 0.11545196175575256, 0.1194058284163475, 0.1264808028936386, 0.11120821535587311, 0.1480189710855484, 0.14194467663764954, 0.13073816895484924, 0.12225372344255447, 0.12802083790302277, 0.12921348214149475, 0.1302262246608734, 0.1364492028951645, 0.14709503948688507, 0.12769344449043274, 0.12666849792003632, 0.11832300573587418, 0.14241494238376617, 0.1386292427778244, 0.13075551390647888, 0.12921379506587982, 0.13633261620998383, 0.14561623334884644, 0.13139820098876953, 0.1271892488002777, 0.12216845899820328, 0.13766062259674072, 0.1510123908519745, 0.13819026947021484, 0.13674356043338776, 0.1491723358631134, 0.16115273535251617, 0.12497267872095108, 0.12861576676368713, 0.16891305148601532, 0.16145619750022888, 0.15023960173130035, 0.15256831049919128, 0.13649633526802063, 0.14659929275512695, 0.12884056568145752, 0.1555342823266983, 0.16006918251514435, 0.1422424465417862, 0.15519849956035614, 0.141752228140831, 0.14347516000270844, 0.13987302780151367, 0.15429966151714325, 0.14568498730659485, 0.14347708225250244, 0.14724193513393402, 0.13980187475681305, 0.1522686779499054, 0.1538039743900299, 0.1326594203710556, 0.13244615495204926, 0.17774435877799988, 0.16473102569580078, 0.1535656452178955, 0.1512627899646759, 0.1908608078956604, 0.15780141949653625, 0.1578715741634369, 0.16547156870365143, 0.16824553906917572, 0.17070984840393066, 0.16209332644939423, 0.1511697620153427, 0.1609800010919571, 0.1512306034564972, 0.16258199512958527, 0.1697305291891098, 0.15832626819610596, 0.15042725205421448, 0.15103012323379517, 0.1549699604511261, 0.17949768900871277, 0.17064416408538818, 0.1692856252193451, 0.16306954622268677, 0.1657172292470932, 0.15098409354686737, 0.16711531579494476, 0.16154226660728455, 0.15620151162147522, 0.16330169141292572, 0.17790015041828156, 0.15965650975704193, 0.1704740822315216, 0.16223403811454773, 0.1580684781074524, 0.18865156173706055, 0.18509812653064728, 0.17568379640579224, 0.1741788685321808, 0.19392070174217224, 0.1807921975851059, 0.18677031993865967, 0.1318618208169937, 0.17433993518352509, 0.17287838459014893, 0.17237414419651031, 0.16819293797016144, 0.15982036292552948, 0.14978443086147308, 0.16160817444324493, 0.17296627163887024, 0.1726909875869751, 0.1722414344549179, 0.16843318939208984, 0.15619340538978577, 0.16775605082511902, 0.1785275936126709, 0.14545801281929016, 0.17843560874462128, 0.1904996633529663, 0.18821054697036743, 0.16833026707172394, 0.1633007526397705, 0.17728957533836365, 0.17486533522605896, 0.16665756702423096, 0.17760491371154785, 0.17580102384090424, 0.16891264915466309, 0.15478312969207764, 0.18220697343349457, 0.1926974356174469, 0.18015851080417633, 0.17040236294269562, 0.16057637333869934, 0.15747255086898804, 0.1638309508562088, 0.1610041856765747, 0.16456884145736694, 0.20097719132900238, 0.15848912298679352, 0.1659666746854782, 0.1600719392299652, 0.2002028226852417, 0.1667671650648117, 0.16816487908363342, 0.1966719627380371, 0.18507446348667145, 0.1876254677772522, 0.2019161880016327, 0.17398084700107574, 0.18063457310199738, 0.18935765326023102, 0.16184210777282715, 0.1942034512758255, 0.1928950548171997, 0.1791323870420456, 0.20503146946430206, 0.16938234865665436, 0.1568654328584671, 0.18877090513706207, 0.17114773392677307, 0.18352212011814117, 0.1840246170759201, 0.18507733941078186, 0.18939580023288727, 0.17522022128105164, 0.19660405814647675, 0.19058290123939514, 0.17894162237644196, 0.1691182553768158, 0.19719931483268738, 0.19343174993991852, 0.17895112931728363, 0.1588079035282135, 0.19579561054706573, 0.18689467012882233, 0.18974260985851288, 0.17562782764434814, 0.1721171736717224, 0.18061143159866333, 0.20305988192558289, 0.1834319531917572, 0.1735900640487671, 0.1968030035495758, 0.18922622501850128, 0.17589513957500458, 0.18238253891468048, 0.17357420921325684, 0.18917734920978546, 0.19415301084518433, 0.17591379582881927, 0.19117404520511627, 0.18954803049564362, 0.17335033416748047, 0.1918700933456421, 0.23024560511112213, 0.17825131118297577, 0.1851222813129425, 0.17605404555797577, 0.1966761350631714, 0.18404708802700043, 0.18619075417518616, 0.19132933020591736, 0.16955283284187317, 0.2132967710494995, 0.1908714771270752, 0.17081627249717712, 0.18341612815856934, 0.20282240211963654, 0.18237413465976715, 0.17508564889431, 0.19242070615291595, 0.18528209626674652, 0.1676427125930786, 0.18480068445205688, 0.18809570372104645, 0.1945343017578125, 0.17719203233718872, 0.19406048953533173, 0.17863982915878296, 0.19664862751960754, 0.17727844417095184, 0.18509787321090698, 0.17007139325141907, 0.18539896607398987, 0.17153474688529968, 0.17841218411922455, 0.20303429663181305, 0.17421050369739532, 0.16476978361606598, 0.19677111506462097, 0.19109390676021576, 0.17644812166690826, 0.18009646236896515, 0.1915009766817093, 0.2049916684627533, 0.20633234083652496, 0.197599858045578, 0.17330209910869598, 0.18171121180057526, 0.20615048706531525, 0.1745569407939911, 0.17985552549362183, 0.1893274188041687, 0.19693869352340698, 0.18276961147785187, 0.1746414750814438, 0.21052342653274536, 0.17942674458026886, 0.19350159168243408, 0.16922320425510406, 0.21482880413532257, 0.2030739039182663, 0.17435351014137268, 0.18800131976604462, 0.19856570661067963, 0.21969780325889587, 0.17393217980861664, 0.1546718329191208, 0.20580728352069855, 0.1644686460494995, 0.167514368891716, 0.19771791994571686, 0.21242161095142365, 0.20933479070663452, 0.2175193578004837, 0.20094557106494904, 0.1868925392627716, 0.18902038037776947, 0.2039172649383545, 0.20218072831630707, 0.19112086296081543, 0.19695231318473816, 0.17833644151687622, 0.18358555436134338, 0.1996675282716751, 0.2063235193490982, 0.17902632057666779, 0.2006356418132782, 0.18956740200519562, 0.2187088280916214, 0.1995329111814499, 0.20598533749580383, 0.19374385476112366, 0.1874147653579712, 0.20322079956531525, 0.20764142274856567, 0.18227612972259521, 0.18728584051132202, 0.1760384440422058, 0.18360638618469238, 0.1973925232887268, 0.1869472712278366, 0.21660372614860535, 0.1992134153842926, 0.1978784203529358, 0.18804912269115448, 0.18640775978565216, 0.19656288623809814, 0.22328108549118042, 0.1910121589899063, 0.17373952269554138, 0.16426002979278564, 0.20439845323562622, 0.1967393010854721, 0.19400343298912048, 0.1756136119365692, 0.1970086395740509, 0.19276116788387299, 0.18758553266525269, 0.18903087079524994, 0.17443925142288208, 0.20625102519989014, 0.21818779408931732, 0.1866077035665512, 0.20183411240577698, 0.19762717187404633, 0.20929409563541412, 0.19312822818756104, 0.2036091536283493, 0.19828522205352783, 0.22070205211639404, 0.17548654973506927, 0.1869528442621231, 0.19514383375644684, 0.18211324512958527, 0.1787140965461731, 0.19135500490665436, 0.18829907476902008, 0.20364876091480255, 0.24108560383319855, 0.19437626004219055, 0.1958390474319458, 0.22236496210098267, 0.2051275074481964, 0.2290205955505371, 0.19560746848583221, 0.21645809710025787, 0.19711746275424957, 0.20840130746364594, 0.20061931014060974, 0.20901964604854584, 0.19586022198200226, 0.18363061547279358, 0.18488451838493347, 0.19891886413097382, 0.19386079907417297, 0.21218626201152802, 0.18174077570438385, 0.17176643013954163, 0.18653899431228638, 0.19586335122585297, 0.2136038839817047, 0.21260829269886017, 0.21239325404167175, 0.19593244791030884, 0.2058711051940918, 0.19463948905467987, 0.17709986865520477, 0.2087276726961136, 0.20387691259384155, 0.19136862456798553, 0.20487524569034576, 0.20867954194545746, 0.2106165736913681, 0.20938697457313538, 0.20262695848941803, 0.2210274189710617, 0.20343182981014252, 0.2068333923816681, 0.1868954598903656, 0.18560637533664703, 0.19511929154396057, 0.19129222631454468, 0.21160930395126343, 0.21130895614624023, 0.2004365622997284, 0.2101561725139618, 0.21460938453674316, 0.205984428524971, 0.2044684737920761, 0.1918770968914032, 0.1864132434129715, 0.18435175716876984, 0.20108547806739807, 0.18993355333805084, 0.21469946205615997, 0.20157939195632935, 0.20168618857860565, 0.17744587361812592, 0.2152937352657318, 0.21245510876178741, 0.18827219307422638, 0.2112683802843094, 0.2053278684616089, 0.19922640919685364, 0.19504331052303314, 0.21301871538162231, 0.20334239304065704, 0.18613208830356598, 0.19541746377944946, 0.21685759723186493, 0.16581304371356964, 0.20541630685329437, 0.2114230841398239, 0.2028878778219223, 0.20082707703113556, 0.2335275262594223, 0.18935884535312653, 0.20153304934501648, 0.18495041131973267, 0.2100619226694107, 0.2051967978477478, 0.18231026828289032, 0.21565617620944977, 0.2238464057445526, 0.19476290047168732, 0.192327618598938, 0.20844227075576782, 0.1890522986650467, 0.19026020169258118, 0.19417183101177216, 0.19178269803524017, 0.21896731853485107, 0.1867154836654663, 0.19962981343269348, 0.2101162075996399, 0.2242756187915802, 0.18695831298828125, 0.2008439302444458, 0.2162073254585266, 0.1877973973751068, 0.20510853826999664, 0.1692856252193451, 0.2111472189426422, 0.19417715072631836, 0.2254573553800583, 0.20093406736850739, 0.21737119555473328, 0.20951026678085327, 0.1779891401529312, 0.19988498091697693, 0.2287563979625702, 0.2211371511220932, 0.2045603096485138, 0.1902700960636139, 0.22429394721984863, 0.18455666303634644, 0.22277389466762543, 0.23405416309833527, 0.20769357681274414, 0.21427208185195923, 0.19515790045261383, 0.20084398984909058, 0.1763530820608139, 0.2006864845752716, 0.20335683226585388, 0.21367451548576355, 0.20310238003730774, 0.21345727145671844, 0.2199743092060089, 0.22123603522777557, 0.21073269844055176, 0.22089068591594696, 0.19890636205673218, 0.19743449985980988, 0.19038771092891693, 0.19444064795970917, 0.20180140435695648, 0.20617571473121643, 0.2130260020494461, 0.2164081186056137, 0.18609803915023804, 0.20126423239707947, 0.20678606629371643, 0.20812837779521942, 0.20607268810272217, 0.18462631106376648, 0.19736123085021973, 0.20094148814678192, 0.20637214183807373, 0.20730248093605042, 0.2365933209657669, 0.1835731565952301, 0.17976145446300507, 0.227220356464386, 0.18705035746097565, 0.20536375045776367, 0.18411502242088318, 0.1972828209400177, 0.20023488998413086, 0.20132501423358917, 0.23523449897766113, 0.2023598700761795, 0.19534806907176971, 0.18603189289569855, 0.21212618052959442, 0.1909531205892563, 0.20419150590896606, 0.17921949923038483, 0.18644115328788757, 0.21528343856334686, 0.2001364380121231, 0.17934724688529968, 0.18657951056957245, 0.1991788148880005, 0.2240789830684662, 0.21632786095142365, 0.20810841023921967, 0.20089787244796753, 0.21567825973033905, 0.19754035770893097, 0.20150721073150635, 0.2198447734117508, 0.20965729653835297, 0.23815804719924927, 0.1838693916797638, 0.2086557149887085, 0.20673604309558868, 0.19952137768268585, 0.1978859305381775, 0.21930159628391266, 0.18532100319862366, 0.2059759944677353, 0.21062083542346954, 0.21538713574409485, 0.2068050652742386, 0.21438170969486237, 0.1768813282251358, 0.20075611770153046, 0.19951191544532776, 0.20288197696208954, 0.20150941610336304, 0.22028794884681702, 0.19882477819919586, 0.23939542472362518, 0.21961276233196259, 0.23178662359714508, 0.19915707409381866, 0.20376603305339813, 0.24012789130210876, 0.19020628929138184, 0.2084631770849228, 0.19624587893486023, 0.22946715354919434, 0.20285114645957947, 0.20333251357078552, 0.1889457255601883, 0.20423245429992676, 0.21175439655780792, 0.20827162265777588, 0.22397147119045258, 0.1823539137840271, 0.19876903295516968, 0.20337779819965363, 0.20102405548095703, 0.21851933002471924, 0.20062007009983063, 0.17544147372245789, 0.1879419982433319, 0.20832420885562897, 0.19630137085914612, 0.21792283654212952, 0.20847707986831665, 0.18389615416526794, 0.1959523856639862, 0.17846877872943878, 0.22675536572933197, 0.21533504128456116, 0.20440909266471863, 0.20299969613552094, 0.1874264031648636, 0.2148054540157318, 0.21790623664855957, 0.2152002602815628, 0.2326008379459381, 0.22263239324092865, 0.20600846409797668, 0.19543051719665527, 0.1915343701839447, 0.1926197111606598, 0.22038297355175018, 0.2315409630537033, 0.1964295506477356, 0.2029261440038681, 0.2134132981300354, 0.18078678846359253, 0.20223672688007355, 0.19335412979125977, 0.23798470199108124, 0.22304174304008484, 0.24048484861850739, 0.20567725598812103, 0.20687861740589142, 0.2239576131105423, 0.17852149903774261, 0.22458913922309875, 0.2042776644229889, 0.2298184484243393, 0.20149865746498108, 0.20909833908081055, 0.2228246033191681, 0.21442951261997223, 0.2020062357187271, 0.19123928248882294, 0.21501296758651733, 0.2198990136384964, 0.2068241387605667, 0.22082418203353882, 0.18802206218242645, 0.19867241382598877, 0.2287578135728836, 0.19726605713367462, 0.1954784244298935, 0.20990514755249023, 0.22527247667312622, 0.18775111436843872, 0.22560758888721466, 0.21885135769844055, 0.20062397420406342, 0.2224457561969757, 0.19454450905323029, 0.20848628878593445, 0.21603825688362122, 0.20888344943523407, 0.20087991654872894, 0.21125146746635437, 0.20737427473068237, 0.2242734581232071, 0.2055116593837738, 0.21373295783996582, 0.17667149007320404, 0.20040452480316162, 0.21142591536045074, 0.20604966580867767, 0.21270905435085297, 0.20093074440956116, 0.18291153013706207, 0.2126641571521759, 0.215497225522995, 0.2193465679883957, 0.18781866133213043, 0.22541172802448273, 0.19535961747169495, 0.194266214966774, 0.1971692144870758, 0.21434837579727173, 0.21209974586963654, 0.20968401432037354, 0.22270718216896057, 0.19904708862304688, 0.18471945822238922, 0.20518441498279572, 0.2219243198633194, 0.21668899059295654, 0.22955182194709778, 0.22161467373371124, 0.21766552329063416, 0.20847350358963013, 0.2373877614736557, 0.1960495114326477, 0.21238575875759125, 0.20159895718097687, 0.24428270757198334, 0.19379106163978577, 0.22437863051891327, 0.18857204914093018, 0.20768707990646362, 0.20403672754764557, 0.22081975638866425, 0.19444137811660767, 0.20547647774219513, 0.20098374783992767, 0.21002687513828278, 0.2079838216304779, 0.2146691530942917, 0.22640272974967957, 0.22905486822128296, 0.22442515194416046, 0.19696639478206635, 0.22228284180164337, 0.2219797670841217, 0.2155020833015442, 0.21203650534152985, 0.21307513117790222, 0.2117103636264801, 0.2282656580209732, 0.2145567685365677, 0.2049490362405777, 0.2056565135717392, 0.22531116008758545, 0.18539480865001678, 0.1699691116809845, 0.20998740196228027, 0.19709037244319916, 0.2091369777917862, 0.203084334731102, 0.207525372505188, 0.21012714505195618, 0.21298494935035706, 0.23312431573867798, 0.19751191139221191, 0.19323989748954773, 0.19669616222381592, 0.19818414747714996, 0.20887266099452972, 0.2046509087085724, 0.24079561233520508, 0.2059876024723053, 0.20789611339569092, 0.21564175188541412, 0.19170956313610077, 0.23606115579605103, 0.20872554183006287, 0.20416757464408875, 0.20589116215705872, 0.19187304377555847, 0.19397792220115662, 0.22663864493370056, 0.23363111913204193, 0.23034720122814178, 0.20491623878479004, 0.2316722720861435, 0.21900497376918793, 0.22704172134399414, 0.22683793306350708, 0.2145663946866989, 0.21859906613826752, 0.22054700553417206, 0.20930998027324677, 0.20752757787704468, 0.2198432832956314, 0.21222864091396332, 0.2124989777803421, 0.2278924584388733, 0.2050444632768631, 0.20429494976997375, 0.2373199164867401, 0.19590987265110016, 0.20807920396327972, 0.21169497072696686, 0.21028216183185577, 0.22517402470111847, 0.19498492777347565, 0.21498548984527588, 0.20437975227832794, 0.2190219759941101, 0.2092130035161972, 0.20400077104568481, 0.20987722277641296, 0.2348090559244156, 0.20172461867332458, 0.2254144549369812, 0.2050982415676117, 0.20586468279361725, 0.18979975581169128, 0.18557797372341156, 0.22331605851650238, 0.2298743575811386, 0.18906918168067932, 0.23915068805217743, 0.18967455625534058, 0.1930743008852005, 0.21947629749774933, 0.225393146276474, 0.19434985518455505, 0.18873439729213715, 0.22935102880001068, 0.21480773389339447, 0.19817321002483368, 0.19493448734283447, 0.21243594586849213, 0.2333659827709198, 0.20619629323482513, 0.19424302875995636, 0.2467716485261917, 0.2012382298707962, 0.20129141211509705, 0.1973734349012375, 0.20289063453674316, 0.2222222238779068, 0.2507246434688568, 0.1923445463180542, 0.23132167756557465, 0.24276448786258698, 0.20940640568733215, 0.17536374926567078, 0.22523923218250275, 0.1800784170627594, 0.2242438942193985, 0.2406788021326065, 0.2091633528470993, 0.18764890730381012, 0.18576285243034363, 0.20119021832942963, 0.19444216787815094, 0.23832006752490997, 0.2188243716955185, 0.20492321252822876, 0.20956818759441376, 0.2027960568666458, 0.2236415594816208, 0.20883555710315704, 0.20931817591190338, 0.20863544940948486, 0.22394666075706482, 0.18493075668811798, 0.203183114528656, 0.2026905119419098, 0.19335953891277313, 0.1874983012676239, 0.20698057115077972, 0.22414922714233398, 0.20560263097286224, 0.21012596786022186, 0.2129124253988266, 0.2151040881872177, 0.20270974934101105, 0.22598408162593842, 0.20597617328166962, 0.20082268118858337, 0.20458611845970154, 0.2218051254749298, 0.21374337375164032, 0.21772687137126923, 0.2111889272928238, 0.2255055159330368, 0.228214293718338, 0.21141782402992249, 0.2267414778470993, 0.20291799306869507, 0.22162102162837982, 0.21106287837028503, 0.19674871861934662, 0.17605961859226227, 0.204310804605484, 0.22782836854457855, 0.2031288594007492, 0.23780454695224762, 0.2259766012430191, 0.21902449429035187, 0.22111357748508453, 0.20544284582138062, 0.2168615460395813, 0.20811204612255096, 0.20612715184688568, 0.22680383920669556, 0.21754299104213715, 0.20604966580867767, 0.23053011298179626, 0.18176324665546417, 0.2065928727388382, 0.21927927434444427, 0.20606325566768646, 0.2028050422668457, 0.2081877738237381, 0.19229504466056824, 0.18660038709640503, 0.22556616365909576, 0.19617758691310883, 0.23387669026851654, 0.2322159707546234, 0.23516550660133362, 0.2345026731491089, 0.21752892434597015, 0.202734112739563, 0.22117109596729279, 0.229885995388031, 0.20228798687458038, 0.2140386551618576, 0.21049606800079346, 0.2523333728313446, 0.24845297634601593, 0.1734803318977356, 0.2203962653875351, 0.22581346333026886, 0.22280797362327576, 0.2217281460762024, 0.19717924296855927, 0.21483838558197021, 0.1980154812335968, 0.20724554359912872, 0.23407860100269318, 0.21560800075531006, 0.1929018199443817, 0.2007504254579544, 0.18791909515857697, 0.21659554541110992, 0.22607681155204773, 0.22327862679958344, 0.21942199766635895, 0.21524184942245483, 0.2298988401889801, 0.21645531058311462, 0.221544548869133, 0.21053923666477203, 0.22104917466640472, 0.2348860800266266, 0.19594280421733856, 0.22795163094997406, 0.21750663220882416, 0.19547083973884583, 0.20146308839321136, 0.21723172068595886, 0.19400902092456818, 0.20982009172439575, 0.22503086924552917, 0.214999720454216, 0.20619851350784302, 0.21563246846199036, 0.21508432924747467, 0.19910679757595062, 0.23435750603675842, 0.20263992249965668, 0.2182559221982956, 0.20352669060230255, 0.20894908905029297, 0.2160153090953827, 0.20811305940151215, 0.21517781913280487, 0.2145507037639618, 0.2227608859539032, 0.209609255194664, 0.2145673632621765, 0.20709654688835144, 0.23119471967220306, 0.2106800526380539, 0.22049859166145325, 0.23095856606960297, 0.19694280624389648, 0.1977410465478897, 0.2127285748720169, 0.2238883376121521, 0.22748957574367523, 0.2173203080892563, 0.21537119150161743, 0.23070213198661804, 0.23148250579833984, 0.21514423191547394, 0.19926542043685913, 0.21215350925922394, 0.21788103878498077, 0.21036800742149353, 0.2343541979789734, 0.1979382485151291, 0.21242743730545044, 0.22205156087875366, 0.20954225957393646, 0.21513433754444122, 0.23426391184329987, 0.20786409080028534, 0.20669656991958618, 0.22120408713817596, 0.21200668811798096, 0.2081909477710724, 0.21102342009544373, 0.23637892305850983, 0.21602387726306915, 0.1670323610305786, 0.22513146698474884, 0.22955311834812164, 0.2299509048461914, 0.23034735023975372, 0.20406204462051392, 0.2080601155757904, 0.2437589317560196, 0.2106509506702423, 0.21079711616039276, 0.2265310138463974, 0.18554268777370453, 0.21085354685783386, 0.226432204246521, 0.1971834897994995, 0.2208133041858673, 0.21794451773166656, 0.20914031565189362, 0.2314596176147461, 0.21582970023155212, 0.1905166357755661, 0.22680017352104187, 0.22446031868457794, 0.21309813857078552, 0.21912872791290283, 0.21570977568626404, 0.23168490827083588, 0.20791514217853546, 0.22141669690608978, 0.20872963964939117, 0.22027473151683807, 0.20777344703674316, 0.2212662696838379, 0.21279269456863403, 0.21315205097198486, 0.2253686785697937, 0.21927309036254883, 0.2056828737258911, 0.18434597551822662, 0.21656295657157898, 0.24272003769874573, 0.2047572284936905, 0.2077787220478058, 0.19614525139331818, 0.2097938507795334, 0.2293073832988739, 0.23080292344093323, 0.2055564671754837, 0.2206439971923828, 0.19715911149978638, 0.2089393436908722, 0.2277805060148239, 0.22906623780727386, 0.2196626514196396, 0.24641670286655426, 0.22895467281341553, 0.21579594910144806, 0.22359977662563324, 0.23633182048797607, 0.19454900920391083, 0.2237897664308548, 0.21757391095161438, 0.21569162607192993, 0.18292348086833954, 0.20044390857219696, 0.22050581872463226, 0.2113204449415207, 0.2201651781797409, 0.20159347355365753, 0.2265573889017105, 0.23271335661411285, 0.23432324826717377, 0.213718444108963, 0.24403052031993866, 0.201679065823555, 0.21954627335071564, 0.22421230375766754, 0.2694101631641388, 0.22208485007286072, 0.22396697103977203, 0.23074176907539368, 0.243569478392601, 0.23667441308498383, 0.23056425154209137, 0.22718609869480133, 0.19901928305625916, 0.23313678801059723, 0.21989528834819794, 0.22079868614673615, 0.24695296585559845, 0.2068890482187271, 0.21047742664813995, 0.19895745813846588, 0.2297065705060959, 0.22744464874267578, 0.2244325876235962, 0.2053588330745697, 0.20794488489627838, 0.19668041169643402, 0.2520027160644531, 0.19920744001865387, 0.22677139937877655, 0.21874061226844788, 0.20389766991138458, 0.20992200076580048, 0.24161221086978912, 0.21823181211948395, 0.22296299040317535, 0.23792687058448792, 0.20584705471992493, 0.22524923086166382, 0.2247122973203659, 0.2134164720773697, 0.21406526863574982, 0.2135266214609146, 0.20911528170108795, 0.22141219675540924, 0.2260444313287735, 0.18825428187847137, 0.22604435682296753, 0.21529574692249298, 0.22859415411949158, 0.21842312812805176, 0.23094776272773743, 0.2376817911863327, 0.17019185423851013, 0.22996267676353455, 0.22352877259254456, 0.21907097101211548, 0.26254457235336304, 0.19802114367485046, 0.215012788772583, 0.21129341423511505, 0.21606746315956116, 0.2049412578344345, 0.23140856623649597, 0.20937372744083405, 0.22981366515159607, 0.22311270236968994, 0.22634845972061157, 0.20506832003593445, 0.19833309948444366, 0.23831434547901154, 0.23697200417518616, 0.2345053106546402, 0.21477851271629333, 0.22776393592357635, 0.2163553088903427, 0.2234368920326233, 0.2353132963180542, 0.22523634135723114, 0.2233128845691681, 0.21879345178604126, 0.20887835323810577, 0.20312799513339996, 0.21071644127368927, 0.24178017675876617, 0.23585528135299683, 0.2043316513299942, 0.2580275237560272, 0.21322236955165863, 0.2237502634525299, 0.2471962422132492, 0.26668116450309753, 0.22351819276809692, 0.24128951132297516, 0.24629372358322144, 0.1940481960773468, 0.21108654141426086, 0.22033250331878662, 0.2634846270084381, 0.21259821951389313, 0.22213441133499146, 0.22006797790527344, 0.2156154066324234, 0.2257375866174698, 