last_val_loss,dataset,ul2,causal_denoisers,noncausal_masking,causal_divider,s_divider,r_divider,x_divider,randomize_denoiser_settings,randomize_mask_width,no_special_tokens,alternate_denoisers,progressive_tasks,model_scale,depth,width,num_params,num_non_embedding_params,num_heads,lr_mult,linear_value,seed,run_num,max_epochs,max_steps,max_tokens,max_time_seconds,gpu_capacity_scalar,train_loss_causal,train_pplx_causal,train_acc_causal,train_loss_s,train_pplx_s,train_loss_r,train_pplx_r,train_loss_x,train_pplx_x,train_acc_x_causal,train_acc_r_causal,train_acc_s_causal,train_acc_x_masked,train_acc_r_masked,train_acc_s_masked,val_loss_causal,val_pplx_causal,val_acc_causal,val_loss_s,val_pplx_s,val_loss_r,val_pplx_r,val_loss_x,val_pplx_x,grad_norm,cumulative_time,tokens_seen,epoch,batch_size,seq_length,learning_rate,weight_decay
2.6484375,fineweb,false,false,false,1.0,0.0,0.0,0.0,false,false,false,false,false,28.980368741954965,43,2048,1333379115,1127309355,32,0.9,false,1600,1,1.0,1000000000,1000000000000,1000000000,1.9,"[10.9375, 7.53125, 7.125, 7.0625, 6.5625, 6.4375, 6.46875, 6.3125, 6.34375, 6.09375, 6.0, 5.96875, 5.90625, 5.84375, 5.84375, 5.90625, 5.75, 5.625, 5.6875, 5.65625, 5.53125, 5.65625, 5.5625, 5.375, 5.6875, 5.4375, 5.4375, 5.3125, 5.15625, 5.3125, 5.09375, 5.125, 5.15625, 5.09375, 5.15625, 5.375, 5.3125, 4.96875, 4.875, 4.84375, 5.0625, 5.0, 4.9375, 5.09375, 4.8125, 4.875, 4.96875, 5.03125, 4.90625, 4.8125, 4.65625, 4.8125, 4.8125, 4.8125, 4.9375, 4.8125, 4.65625, 4.625, 5.0, 4.46875, 4.8125, 4.6875, 4.59375, 4.46875, 4.34375, 4.34375, 4.59375, 4.375, 4.46875, 4.5625, 4.46875, 4.59375, 4.5625, 4.5625, 4.4375, 4.375, 4.46875, 4.5625, 4.5, 4.46875, 4.34375, 4.3125, 4.65625, 4.5, 4.34375, 4.28125, 4.28125, 4.21875, 4.40625, 4.25, 4.34375, 4.28125, 4.21875, 4.21875, 4.125, 4.28125, 4.3125, 4.15625, 4.4375, 4.25, 4.28125, 4.28125, 4.0625, 4.125, 4.09375, 4.09375, 4.0625, 3.9375, 4.09375, 3.953125, 4.09375, 3.90625, 4.0625, 3.890625, 4.125, 4.21875, 4.0, 4.09375, 3.953125, 4.125, 4.03125, 3.984375, 4.09375, 3.96875, 4.0625, 3.875, 4.03125, 3.921875, 3.734375, 3.8125, 3.828125, 4.03125, 3.78125, 3.828125, 3.8125, 4.21875, 4.03125, 3.859375, 3.984375, 3.546875, 3.9375, 3.796875, 3.8125, 3.78125, 3.671875, 3.828125, 3.90625, 3.625, 3.765625, 3.6875, 3.875, 4.03125, 3.71875, 3.65625, 3.671875, 3.78125, 3.859375, 3.796875, 3.859375, 3.53125, 3.65625, 3.984375, 3.671875, 3.78125, 3.734375, 3.65625, 3.953125, 3.59375, 3.703125, 3.546875, 3.796875, 3.71875, 3.625, 3.515625, 3.765625, 3.65625, 3.546875, 3.65625, 3.59375, 3.6875, 3.625, 3.546875, 3.703125, 3.515625, 3.703125, 3.625, 3.46875, 3.734375, 3.65625, 3.640625, 3.53125, 3.59375, 3.609375, 3.65625, 3.640625, 3.75, 3.5, 3.484375, 3.5, 3.625, 3.71875, 3.640625, 3.5, 3.71875, 3.546875, 3.484375, 3.5, 3.65625, 3.71875, 3.75, 3.578125, 3.546875, 3.734375, 3.484375, 3.359375, 3.359375, 3.546875, 3.65625, 3.546875, 3.5, 3.453125, 3.46875, 3.5625, 3.421875, 3.390625, 3.453125, 3.46875, 3.484375, 3.4375, 3.609375, 3.5, 3.46875, 3.34375, 3.5625, 3.3125, 3.421875, 3.53125, 3.359375, 3.390625, 3.53125, 3.59375, 3.46875, 3.453125, 3.234375, 3.484375, 3.28125, 3.34375, 3.4375, 3.515625, 3.421875, 3.609375, 3.4375, 3.21875, 3.328125, 3.515625, 3.515625, 3.515625, 3.6875, 3.46875, 3.25, 3.421875, 3.46875, 3.625, 3.34375, 3.546875, 3.375, 3.28125, 3.34375, 3.3125, 3.390625, 3.5, 3.4375, 3.5, 3.375, 3.34375, 3.390625, 3.40625, 3.28125, 3.390625, 3.25, 3.40625, 3.46875, 3.296875, 3.484375, 3.5625, 3.390625, 3.25, 3.40625, 3.453125, 3.484375, 3.359375, 3.5625, 3.375, 3.359375, 3.3125, 3.34375, 3.265625, 3.375, 3.15625, 3.34375, 3.359375, 3.59375, 3.546875, 3.375, 3.296875, 3.09375, 3.40625, 3.1875, 3.21875, 3.296875, 3.328125, 3.40625, 3.25, 3.203125, 3.265625, 3.328125, 3.4375, 3.328125, 3.390625, 3.15625, 3.296875, 3.265625, 3.296875, 3.4375, 3.390625, 3.375, 3.28125, 3.453125, 3.453125, 3.265625, 3.4375, 3.1875, 3.53125, 3.359375, 3.5, 3.375, 3.234375, 3.25, 3.46875, 3.421875, 3.328125, 3.3125, 3.15625, 3.09375, 3.359375, 3.25, 3.28125, 3.28125, 3.296875, 3.265625, 3.359375, 3.328125, 3.140625, 3.203125, 3.15625, 3.078125, 3.28125, 3.265625, 3.328125, 3.34375, 3.3125, 3.34375, 3.1875, 3.375, 3.28125, 3.390625, 3.40625, 3.21875, 3.1875, 3.140625, 3.265625, 3.4375, 3.125, 3.265625, 3.203125, 3.1875, 3.21875, 3.265625, 3.390625, 3.421875, 2.96875, 3.1875, 3.3125, 3.171875, 3.34375, 3.09375, 3.265625, 3.40625, 3.265625, 3.046875, 3.171875, 3.109375, 3.234375, 2.921875, 3.328125, 3.171875, 2.984375, 3.140625, 3.15625, 3.203125, 3.015625, 3.3125, 3.21875, 3.15625, 3.046875, 3.25, 3.171875, 3.203125, 3.21875, 3.140625, 3.125, 3.171875, 3.1875, 3.234375, 3.0625, 3.203125, 3.21875, 3.34375, 3.171875, 3.328125, 3.171875, 3.21875, 3.28125, 3.109375, 3.078125, 3.28125, 3.25, 3.15625, 3.078125, 3.078125, 3.015625, 3.078125, 3.296875, 3.015625, 3.234375, 3.21875, 3.375, 3.046875, 3.328125, 2.984375, 3.0625, 3.234375, 3.375, 3.125, 3.328125, 3.046875, 3.109375, 3.078125, 3.171875, 3.1875, 3.140625, 3.203125, 3.296875, 3.25, 3.0, 3.03125, 3.03125, 3.046875, 3.1875, 3.34375, 3.203125, 3.015625, 3.1875, 3.234375, 3.171875, 3.078125, 3.078125, 3.015625, 3.40625, 3.0625, 3.234375, 3.125, 3.234375, 3.109375, 3.21875, 3.0625, 3.234375, 3.09375, 3.046875, 3.21875, 3.15625, 3.078125, 3.15625, 3.109375, 3.109375, 3.0, 3.1875, 3.25, 3.21875, 3.109375, 3.015625, 3.109375, 3.0, 2.96875, 3.140625, 3.234375, 3.109375, 3.171875, 3.078125, 3.34375, 3.171875, 3.40625, 3.09375, 3.25, 3.125, 3.15625, 2.875, 3.0625, 2.9375, 3.078125, 2.84375, 3.15625, 3.109375, 3.28125, 3.109375, 3.078125, 3.078125, 3.296875, 3.140625, 3.015625, 3.203125, 3.09375, 3.125, 3.25, 3.046875, 3.234375, 3.21875, 3.078125, 3.078125, 3.109375, 3.171875, 2.953125, 2.96875, 3.171875, 3.203125, 2.890625, 2.96875, 3.015625, 2.96875, 2.984375, 3.1875, 2.734375, 2.96875, 3.140625, 3.015625, 3.09375, 3.078125, 3.0625, 2.953125, 3.125, 3.0625, 3.109375, 3.171875, 3.140625, 2.984375, 3.109375, 3.046875, 3.046875, 3.0625, 3.203125, 2.921875, 3.203125, 3.046875, 2.90625, 3.03125, 3.03125, 2.9375, 2.78125, 2.96875, 3.4375, 3.03125, 3.234375, 3.078125, 3.125, 3.171875, 3.140625, 3.046875, 3.03125, 2.90625, 3.203125, 2.90625, 3.09375, 3.0625, 2.921875, 3.03125, 3.15625, 2.859375, 3.234375, 3.09375, 3.046875, 2.859375, 3.046875, 3.03125, 3.09375, 2.984375, 3.046875, 3.015625, 3.09375, 2.921875, 3.15625, 3.265625, 2.984375, 3.015625, 3.09375, 3.09375, 3.171875, 3.09375, 3.140625, 3.046875, 2.96875, 2.953125, 3.125, 3.140625, 3.015625, 3.09375, 2.890625, 3.34375, 2.953125, 2.859375, 3.046875, 3.0625, 2.765625, 2.984375, 3.125, 2.875, 2.890625, 3.0625, 3.0, 2.859375, 3.109375, 2.890625, 2.9375, 2.875, 2.984375, 2.9375, 3.0, 3.171875, 2.9375, 2.953125, 3.109375, 3.046875, 3.03125, 3.0, 2.953125, 2.90625, 3.078125, 2.96875, 3.015625, 2.796875, 3.09375, 2.8125, 2.859375, 3.078125, 3.109375, 2.90625, 3.046875, 2.875, 3.109375, 3.0625, 2.96875, 2.984375, 2.8125, 2.890625, 2.90625, 3.03125, 3.15625, 3.03125, 2.890625, 3.078125, 2.96875, 2.921875, 3.0, 2.953125, 2.828125, 3.140625, 2.875, 3.0, 2.96875, 3.125, 2.96875, 3.046875, 3.140625, 2.921875, 3.078125, 3.015625, 3.046875, 3.109375, 3.0, 3.21875, 2.859375, 3.109375, 2.90625, 3.046875, 3.0, 2.953125, 2.75, 2.84375, 3.21875, 3.109375, 2.859375, 3.125, 2.765625, 2.859375, 3.03125, 2.859375, 3.046875, 2.703125, 2.953125, 3.015625, 3.09375, 2.921875, 3.046875, 2.96875, 2.953125, 2.90625, 2.890625, 2.953125, 2.890625, 2.9375, 3.0625, 2.890625, 3.09375, 2.921875, 3.015625, 2.84375, 3.109375, 3.078125, 2.953125, 3.03125, 2.8125, 2.953125, 3.1875, 2.9375, 3.015625, 3.046875, 2.84375, 3.109375, 2.984375, 3.03125, 3.0625, 2.84375, 2.859375, 2.875, 3.265625, 2.71875, 2.96875, 2.9375, 2.84375, 2.765625, 2.953125, 3.015625, 2.96875, 2.96875, 2.96875, 2.890625, 2.9375, 2.9375, 2.859375, 3.15625, 2.890625, 3.0625, 2.71875, 3.109375, 2.953125, 2.9375, 2.921875, 3.0, 2.96875, 2.859375, 2.96875, 3.15625, 3.171875, 2.9375, 3.0625, 2.953125, 2.890625, 2.796875, 3.03125, 3.109375, 2.953125, 2.953125, 2.84375, 2.875, 2.84375, 2.984375, 3.203125, 2.96875, 3.0625, 2.921875, 2.84375, 3.078125, 2.84375, 2.890625, 2.765625, 3.015625, 2.828125, 2.9375, 2.71875, 2.921875, 2.984375, 2.90625, 2.875, 2.875, 2.90625, 3.03125, 3.09375, 2.90625, 2.953125, 2.78125, 3.078125, 3.09375, 3.015625, 2.875, 2.71875, 2.96875, 3.046875, 2.90625, 2.984375, 2.84375, 3.03125, 2.609375, 2.8125, 2.859375, 2.875, 2.890625, 3.203125, 2.875, 2.859375, 2.890625, 3.015625, 2.875, 2.84375, 2.765625, 2.90625, 2.921875, 3.0, 3.03125, 2.90625, 2.796875, 2.921875, 3.0, 2.96875, 2.921875, 2.984375, 2.765625, 2.875, 2.734375, 2.6875, 2.8125, 2.921875, 2.921875, 2.890625, 2.9375, 2.859375, 2.890625, 2.734375, 2.875, 3.09375, 2.859375, 2.859375, 2.84375, 2.96875, 2.875, 2.875, 2.765625, 2.875, 2.71875, 2.765625, 2.96875, 3.109375, 2.890625, 2.953125, 2.921875, 2.984375, 2.875, 2.828125, 2.921875, 3.0, 3.078125, 2.921875, 3.09375, 3.0625, 2.65625, 2.796875, 2.90625, 3.046875, 2.78125, 2.890625, 2.875, 2.953125, 3.171875, 2.75, 2.6875, 2.90625, 2.765625, 2.8125, 2.9375, 2.8125, 2.765625, 2.859375, 2.953125, 3.03125, 2.796875, 2.859375, 3.03125, 2.84375, 2.96875, 3.0, 3.09375, 2.96875, 2.90625, 2.9375, 2.6875, 2.921875, 2.90625, 3.0625, 2.78125, 2.859375, 3.0, 2.890625, 2.828125, 3.015625, 2.828125, 2.875, 2.84375, 2.921875, 2.78125, 2.890625, 3.015625, 2.75, 2.703125, 2.859375, 2.671875, 2.8125, 3.03125, 3.046875, 2.734375, 2.84375, 2.96875, 3.03125, 2.859375, 2.859375, 2.84375, 2.84375, 2.90625, 2.875, 2.953125, 3.0625, 3.015625, 2.90625, 2.796875, 2.953125, 2.984375, 2.84375, 2.828125, 2.890625, 2.765625, 2.953125, 2.859375, 2.734375, 2.734375, 2.90625, 2.828125, 2.9375, 3.109375, 2.90625, 2.984375, 2.828125, 2.734375, 3.046875, 2.9375, 2.921875, 2.609375, 2.84375, 2.8125, 2.734375, 2.828125, 2.796875, 2.84375, 3.0, 2.9375, 2.859375, 2.8125, 2.75, 2.640625, 3.140625, 2.921875, 2.84375, 2.9375, 3.03125, 2.859375, 2.875, 2.8125, 2.796875, 2.765625, 2.96875, 2.59375, 2.734375, 3.03125, 2.984375, 2.75, 2.71875, 2.90625, 2.859375, 2.90625, 2.703125, 2.875, 2.78125, 2.703125, 2.90625, 2.875, 2.90625, 3.0, 2.8125, 2.8125, 2.890625, 2.828125, 2.796875, 2.828125, 2.921875, 2.890625, 2.890625, 2.890625, 2.828125, 2.640625, 2.859375, 2.703125, 2.984375, 2.90625, 2.859375, 2.8125, 2.984375, 2.9375, 2.890625, 2.71875, 2.765625, 2.9375, 2.96875, 2.4375, 2.75, 2.984375, 2.8125, 2.75, 2.828125, 2.84375, 2.640625, 2.6875, 2.828125, 2.875, 2.78125, 2.921875, 2.78125, 2.6875, 2.75, 2.890625, 2.703125, 2.703125, 3.03125, 2.90625, 2.75, 2.78125, 2.65625, 2.625, 2.90625, 2.828125, 2.703125, 2.9375, 3.09375, 2.828125, 2.890625, 2.84375, 2.796875, 2.875, 2.765625, 2.609375, 2.828125, 2.765625, 2.953125, 2.734375, 2.8125, 2.9375, 2.78125, 2.765625, 2.953125, 3.0, 2.8125, 2.71875, 2.78125, 2.75, 2.828125, 2.796875, 2.890625, 2.890625, 2.828125, 2.671875, 2.859375, 2.75, 2.8125, 2.875, 2.921875, 2.796875, 3.109375, 2.640625, 2.8125, 2.703125, 2.640625, 2.65625, 2.734375, 2.640625, 2.9375, 2.671875, 2.96875, 2.8125, 2.9375, 2.84375, 2.703125, 2.890625, 2.9375, 2.796875, 2.875, 2.984375, 2.671875, 2.75, 2.828125, 2.859375, 2.6875, 2.921875, 2.828125, 2.9375, 2.796875, 2.9375, 2.734375, 2.859375, 2.65625, 2.5625, 2.78125, 2.921875, 2.6875, 2.78125, 2.78125, 2.90625, 2.546875, 2.734375, 2.75, 2.78125, 2.796875, 2.78125, 2.796875, 2.71875, 2.765625, 2.796875, 2.703125, 2.75, 2.765625, 2.5625, 2.8125, 2.734375, 2.796875, 2.796875, 2.96875, 2.875, 3.015625, 2.671875, 2.671875, 2.859375, 2.671875, 2.65625, 2.609375, 2.9375, 2.71875, 2.828125, 2.890625, 2.859375, 2.71875, 2.71875, 2.84375, 2.8125, 2.71875, 2.78125, 2.828125, 2.875, 2.703125, 2.6875, 2.9375, 2.78125, 2.75, 2.625, 2.90625, 2.671875, 2.671875, 2.828125, 2.921875, 2.921875, 2.90625, 2.796875, 2.734375, 2.671875, 2.734375, 2.796875, 2.78125, 2.625, 2.609375, 2.890625, 2.890625, 2.59375, 2.734375, 2.8125, 2.890625, 2.78125, 2.640625, 2.546875, 2.890625, 2.8125, 2.765625, 2.875, 2.75, 2.796875, 2.5625, 2.859375, 2.734375, 2.6875, 2.65625, 2.84375, 2.6875, 2.8125, 2.875, 2.6875, 2.796875, 2.78125, 2.796875, 2.75, 2.75, 2.734375, 2.75, 2.625, 2.9375, 2.6875, 2.84375, 2.703125, 2.59375, 2.609375, 2.5625, 2.96875, 2.796875, 2.625, 2.75, 2.765625, 2.546875, 2.75, 2.8125, 2.8125, 2.578125, 2.734375, 2.59375, 2.90625, 2.921875, 2.75, 2.765625, 2.84375, 2.828125, 2.671875, 2.671875, 2.671875, 2.671875, 2.828125, 2.71875, 2.75, 2.890625, 2.75, 2.765625, 2.609375, 2.71875, 2.625, 2.796875, 2.5625, 2.796875, 2.859375, 2.625, 2.6875, 2.953125, 2.796875, 2.671875, 2.703125, 2.578125, 2.84375, 2.703125, 2.734375, 2.796875, 2.828125, 2.875, 3.015625, 2.59375, 2.75, 2.796875, 2.796875, 2.71875, 2.6875, 2.71875, 2.890625, 2.59375, 2.8125, 2.609375, 2.578125, 2.921875, 2.59375, 2.515625, 2.671875, 2.71875, 2.609375, 2.578125, 2.875, 2.703125, 2.59375, 2.78125, 2.828125, 2.75, 2.609375, 2.78125, 2.765625, 2.65625, 2.625, 2.90625, 2.71875, 2.65625, 2.765625, 2.734375, 2.84375, 2.765625, 2.765625, 2.828125, 2.796875, 2.734375, 2.671875, 2.65625, 2.859375, 2.84375, 2.796875, 2.625, 2.75, 2.75, 2.71875, 2.796875, 2.640625, 2.71875, 2.796875, 2.84375, 2.671875, 2.671875, 2.703125, 2.546875, 2.796875, 2.4375, 2.703125, 2.53125, 2.796875, 2.84375, 2.453125, 2.703125, 2.578125, 2.703125, 2.6875, 2.59375, 2.9375, 2.59375, 2.578125, 2.859375, 2.71875, 2.703125, 2.59375, 2.75, 2.6875, 2.78125, 2.671875, 2.671875, 2.8125, 2.5, 2.734375, 2.75, 2.90625, 2.703125, 2.796875, 2.515625, 2.6875, 2.765625, 2.5, 2.75, 2.703125, 2.796875, 2.734375, 2.59375, 2.671875, 2.90625, 2.6875, 2.59375, 2.6875, 2.640625, 2.609375, 2.5625, 2.59375, 2.875, 2.75, 2.5, 2.890625, 2.625, 2.5625, 2.6875, 2.625, 2.46875, 2.53125, 2.6875, 2.734375, 2.796875, 2.640625, 2.71875, 2.65625, 2.65625, 2.625, 2.828125, 2.421875, 2.703125, 2.546875, 2.796875, 2.765625, 2.5625, 2.734375, 2.8125, 2.796875, 2.546875, 2.71875, 2.75, 2.546875, 2.78125, 2.59375, 2.609375, 2.546875, 2.796875, 2.609375, 2.796875, 2.640625, 2.609375, 2.734375, 2.65625, 2.71875, 2.859375, 2.515625, 2.546875, 2.734375, 2.703125, 2.671875, 2.796875, 2.640625, 2.703125, 2.515625, 2.546875, 2.8125, 2.515625, 2.71875, 2.734375, 2.640625, 2.734375, 2.546875, 2.578125, 2.453125, 2.671875, 2.578125, 2.859375, 2.625, 2.671875, 2.703125, 2.75, 2.5625, 2.515625, 2.8125, 2.703125, 2.640625, 2.28125, 2.546875, 2.578125, 2.46875, 2.8125, 2.671875, 2.484375, 2.65625, 2.796875, 2.796875, 2.53125, 2.71875, 2.734375, 2.5, 2.796875, 2.640625, 2.640625, 2.78125, 2.578125, 2.578125, 2.640625, 2.609375, 2.671875, 2.515625, 2.71875, 2.59375, 2.734375, 2.421875, 2.515625, 2.625, 2.4375, 2.515625, 2.6875, 2.640625, 2.796875, 2.640625, 2.59375, 2.703125, 2.78125, 2.625, 2.765625, 2.53125, 2.703125, 2.578125, 2.515625, 2.765625, 2.65625, 2.4375, 2.59375, 2.546875, 2.53125, 2.578125, 2.625, 2.59375, 2.828125, 2.46875, 2.65625, 2.640625, 2.609375, 2.359375, 2.578125, 2.59375, 2.5, 2.234375, 2.703125, 2.609375, 2.703125, 2.6875, 2.59375, 2.65625, 2.703125, 2.484375, 2.640625, 2.515625, 2.59375, 2.390625, 2.5625, 2.609375, 2.515625, 2.671875, 2.6875, 2.71875, 2.40625, 2.59375, 2.546875, 2.5, 2.34375, 2.546875, 2.515625, 2.5, 2.46875, 2.421875, 2.65625, 2.4375, 2.515625, 2.546875, 2.453125, 2.625, 2.703125, 2.578125, 2.328125, 2.4375, 2.453125, 2.53125, 2.375, 2.328125]","[56320.0, 1864.0, 1248.0, 1168.0, 708.0, 624.0, 644.0, 552.0, 568.0, 444.0, 404.0, 392.0, 368.0, 346.0, 346.0, 368.0, 314.0, 278.0, 296.0, 286.0, 253.0, 286.0, 260.0, 216.0, 296.0, 230.0, 230.0, 203.0, 174.0, 203.0, 163.0, 168.0, 174.0, 163.0, 174.0, 216.0, 203.0, 144.0, 131.0, 127.0, 158.0, 149.0, 140.0, 163.0, 123.0, 131.0, 144.0, 153.0, 135.0, 123.0, 105.5, 123.0, 123.0, 123.0, 140.0, 123.0, 105.5, 102.0, 149.0, 87.5, 123.0, 108.5, 99.0, 87.5, 77.0, 77.0, 99.0, 79.5, 87.5, 96.0, 87.5, 99.0, 96.0, 96.0, 84.5, 79.5, 87.5, 96.0, 90.0, 87.5, 77.0, 74.5, 105.5, 90.0, 77.0, 72.5, 72.5, 68.0, 82.0, 70.0, 77.0, 72.5, 68.0, 68.0, 62.0, 72.5, 74.5, 64.0, 84.5, 70.0, 72.5, 72.5, 58.25, 62.0, 60.0, 60.0, 58.25, 51.25, 60.0, 52.25, 60.0, 49.75, 58.25, 49.0, 62.0, 68.0, 54.75, 60.0, 52.25, 62.0, 56.25, 53.75, 60.0, 53.0, 58.25, 48.25, 56.25, 50.5, 42.0, 45.25, 46.0, 56.25, 44.0, 46.0, 45.25, 68.0, 56.25, 47.5, 53.75, 34.75, 51.25, 44.5, 45.25, 44.0, 39.25, 46.0, 49.75, 37.5, 43.25, 40.0, 48.25, 56.25, 41.25, 38.75, 39.25, 44.0, 47.5, 44.5, 47.5, 34.25, 38.75, 53.75, 39.25, 44.0, 42.0, 38.75, 52.25, 36.5, 40.5, 34.75, 44.5, 41.25, 37.5, 33.75, 43.25, 38.75, 34.75, 38.75, 36.5, 40.0, 37.5, 34.75, 40.5, 33.75, 40.5, 37.5, 32.0, 42.0, 38.75, 38.25, 34.25, 36.5, 37.0, 38.75, 38.25, 42.5, 33.25, 32.5, 33.25, 37.5, 41.25, 38.25, 33.25, 41.25, 34.75, 32.5, 33.25, 38.75, 41.25, 42.5, 35.75, 34.75, 42.0, 32.5, 28.75, 28.75, 34.75, 38.75, 34.75, 33.25, 31.625, 32.0, 35.25, 30.625, 29.75, 31.625, 32.0, 32.5, 31.125, 37.0, 33.25, 32.0, 28.375, 35.25, 27.5, 30.625, 34.25, 28.75, 29.75, 34.25, 36.5, 32.0, 31.625, 25.375, 32.5, 26.625, 28.375, 31.125, 33.75, 30.625, 37.0, 31.125, 25.0, 27.875, 33.75, 33.75, 33.75, 40.0, 32.0, 25.75, 30.625, 32.0, 37.5, 28.375, 34.75, 29.25, 26.625, 28.375, 27.5, 29.75, 33.25, 31.125, 33.25, 29.25, 28.375, 29.75, 30.125, 26.625, 29.75, 25.75, 30.125, 32.0, 27.0, 32.5, 35.25, 29.75, 25.75, 30.125, 31.625, 32.5, 28.75, 35.25, 29.25, 28.75, 27.5, 28.375, 26.25, 29.25, 23.5, 28.375, 28.75, 36.5, 34.75, 29.25, 27.0, 22.125, 30.125, 24.25, 25.0, 27.0, 27.875, 30.125, 25.75, 24.625, 26.25, 27.875, 31.125, 27.875, 29.75, 23.5, 27.0, 26.25, 27.0, 31.125, 29.75, 29.25, 26.625, 31.625, 31.625, 26.25, 31.125, 24.25, 34.25, 28.75, 33.25, 29.25, 25.375, 25.75, 32.0, 30.625, 27.875, 27.5, 23.5, 22.125, 28.75, 25.75, 26.625, 26.625, 27.0, 26.25, 28.75, 27.875, 23.125, 24.625, 23.5, 21.75, 26.625, 26.25, 27.875, 28.375, 27.5, 28.375, 24.25, 29.25, 26.625, 29.75, 30.125, 25.0, 24.25, 23.125, 26.25, 31.125, 22.75, 26.25, 24.625, 24.25, 25.0, 26.25, 29.75, 30.625, 19.5, 24.25, 27.5, 23.875, 28.375, 22.125, 26.25, 30.125, 26.25, 21.0, 23.875, 22.375, 25.375, 18.625, 27.875, 23.875, 19.75, 23.125, 23.5, 24.625, 20.375, 27.5, 25.0, 23.5, 21.0, 25.75, 23.875, 24.625, 25.0, 23.125, 22.75, 23.875, 24.25, 25.375, 21.375, 24.625, 25.0, 28.375, 23.875, 27.875, 23.875, 25.0, 26.625, 22.375, 21.75, 26.625, 25.75, 23.5, 21.75, 21.75, 20.375, 21.75, 27.0, 20.375, 25.375, 25.0, 29.25, 21.0, 27.875, 19.75, 21.375, 25.375, 29.25, 22.75, 27.875, 21.0, 22.375, 21.75, 23.875, 24.25, 23.125, 24.625, 27.0, 25.75, 20.125, 20.75, 20.75, 21.0, 24.25, 28.375, 24.625, 20.375, 24.25, 25.375, 23.875, 21.75, 21.75, 20.375, 30.125, 21.375, 25.375, 22.75, 25.375, 22.375, 25.0, 21.375, 25.375, 22.125, 21.0, 25.0, 23.5, 21.75, 23.5, 22.375, 22.375, 20.125, 24.25, 25.75, 25.0, 22.375, 20.375, 22.375, 20.125, 19.5, 23.125, 25.375, 22.375, 23.875, 21.75, 28.375, 23.875, 30.125, 22.125, 25.75, 22.75, 23.5, 17.75, 21.375, 18.875, 21.75, 17.25, 23.5, 22.375, 26.625, 22.375, 21.75, 21.75, 27.0, 23.125, 20.375, 24.625, 22.125, 22.75, 25.75, 21.0, 25.375, 25.0, 21.75, 21.75, 22.375, 23.875, 19.125, 19.5, 23.875, 24.625, 18.0, 19.5, 20.375, 19.5, 19.75, 24.25, 15.4375, 19.5, 23.125, 20.375, 22.125, 21.75, 21.375, 19.125, 22.75, 21.375, 22.375, 23.875, 23.125, 19.75, 22.375, 21.0, 21.0, 21.375, 24.625, 18.625, 24.625, 21.0, 18.25, 20.75, 20.75, 18.875, 16.125, 19.5, 31.125, 20.75, 25.375, 21.75, 22.75, 23.875, 23.125, 21.0, 20.75, 18.25, 24.625, 18.25, 22.125, 21.375, 18.625, 20.75, 23.5, 17.5, 25.375, 22.125, 21.0, 17.5, 21.0, 20.75, 22.125, 19.75, 21.0, 20.375, 22.125, 18.625, 23.5, 26.25, 19.75, 20.375, 22.125, 22.125, 23.875, 22.125, 23.125, 21.0, 19.5, 19.125, 22.75, 23.125, 20.375, 22.125, 18.0, 28.375, 19.125, 17.5, 21.0, 21.375, 15.875, 19.75, 22.75, 17.75, 18.0, 21.375, 20.125, 17.5, 22.375, 18.0, 18.875, 17.75, 19.75, 18.875, 20.125, 23.875, 18.875, 19.125, 22.375, 21.0, 20.75, 20.125, 19.125, 18.25, 21.75, 19.5, 20.375, 16.375, 22.125, 16.625, 17.5, 21.75, 22.375, 18.25, 21.0, 17.75, 22.375, 21.375, 19.5, 19.75, 16.625, 18.0, 18.25, 20.75, 23.5, 20.75, 18.0, 21.75, 19.5, 18.625, 20.125, 19.125, 16.875, 23.125, 17.75, 20.125, 19.5, 22.75, 19.5, 21.0, 23.125, 18.625, 21.75, 20.375, 21.0, 22.375, 20.125, 25.0, 17.5, 22.375, 18.25, 21.0, 20.125, 19.125, 15.625, 17.25, 25.0, 22.375, 17.5, 22.75, 15.875, 17.5, 20.75, 17.5, 21.0, 14.9375, 19.125, 20.375, 22.125, 18.625, 21.0, 19.5, 19.125, 18.25, 18.0, 19.125, 18.0, 18.875, 21.375, 18.0, 22.125, 18.625, 20.375, 17.25, 22.375, 21.75, 19.125, 20.75, 16.625, 19.125, 24.25, 18.875, 20.375, 21.0, 17.25, 22.375, 19.75, 20.75, 21.375, 17.25, 17.5, 17.75, 26.25, 15.1875, 19.5, 18.875, 17.25, 15.875, 19.125, 20.375, 19.5, 19.5, 19.5, 18.0, 18.875, 18.875, 17.5, 23.5, 18.0, 21.375, 15.1875, 22.375, 19.125, 18.875, 18.625, 20.125, 19.5, 17.5, 19.5, 23.5, 23.875, 18.875, 21.375, 19.125, 18.0, 16.375, 20.75, 22.375, 19.125, 19.125, 17.25, 17.75, 17.25, 19.75, 24.625, 19.5, 21.375, 18.625, 17.25, 21.75, 17.25, 18.0, 15.875, 20.375, 16.875, 18.875, 15.1875, 18.625, 19.75, 18.25, 17.75, 17.75, 18.25, 20.75, 22.125, 18.25, 19.125, 16.125, 21.75, 22.125, 20.375, 17.75, 15.1875, 19.5, 21.0, 18.25, 19.75, 17.25, 20.75, 13.625, 16.625, 17.5, 17.75, 18.0, 24.625, 17.75, 17.5, 18.0, 20.375, 17.75, 17.25, 15.875, 18.25, 18.625, 20.125, 20.75, 18.25, 16.375, 18.625, 20.125, 19.5, 18.625, 19.75, 15.875, 17.75, 15.4375, 14.6875, 16.625, 18.625, 18.625, 18.0, 18.875, 17.5, 18.0, 15.4375, 17.75, 22.125, 17.5, 17.5, 17.25, 19.5, 17.75, 17.75, 15.875, 17.75, 15.1875, 15.875, 19.5, 22.375, 18.0, 19.125, 18.625, 19.75, 17.75, 16.875, 18.625, 20.125, 21.75, 18.625, 22.125, 21.375, 14.25, 16.375, 18.25, 21.0, 16.125, 18.0, 17.75, 19.125, 23.875, 15.625, 14.6875, 18.25, 15.875, 16.625, 18.875, 16.625, 15.875, 17.5, 19.125, 20.75, 16.375, 17.5, 20.75, 17.25, 19.5, 20.125, 22.125, 19.5, 18.25, 18.875, 14.6875, 18.625, 18.25, 21.375, 16.125, 17.5, 20.125, 18.0, 16.875, 20.375, 16.875, 17.75, 17.25, 18.625, 16.125, 18.0, 20.375, 15.625, 14.9375, 17.5, 14.5, 16.625, 20.75, 21.0, 15.4375, 17.25, 19.5, 20.75, 17.5, 17.5, 17.25, 17.25, 18.25, 17.75, 19.125, 21.375, 20.375, 18.25, 16.375, 19.125, 19.75, 17.25, 16.875, 18.0, 15.875, 19.125, 17.5, 15.4375, 15.4375, 18.25, 16.875, 18.875, 22.375, 18.25, 19.75, 16.875, 15.4375, 21.0, 18.875, 18.625, 13.625, 17.25, 16.625, 15.4375, 16.875, 16.375, 17.25, 20.125, 18.875, 17.5, 16.625, 15.625, 14.0, 23.125, 18.625, 17.25, 18.875, 20.75, 17.5, 17.75, 16.625, 16.375, 15.875, 19.5, 13.375, 15.4375, 20.75, 19.75, 15.625, 15.1875, 18.25, 17.5, 18.25, 14.9375, 17.75, 16.125, 14.9375, 18.25, 17.75, 18.25, 20.125, 16.625, 16.625, 18.0, 16.875, 16.375, 16.875, 18.625, 18.0, 18.0, 18.0, 16.875, 14.0, 17.5, 14.9375, 19.75, 18.25, 17.5, 16.625, 19.75, 18.875, 18.0, 15.1875, 15.875, 18.875, 19.5, 11.4375, 15.625, 19.75, 16.625, 15.625, 16.875, 17.25, 14.0, 14.6875, 16.875, 17.75, 16.125, 18.625, 16.125, 14.6875, 15.625, 18.0, 14.9375, 14.9375, 20.75, 18.25, 15.625, 16.125, 14.25, 13.8125, 18.25, 16.875, 14.9375, 18.875, 22.125, 16.875, 18.0, 17.25, 16.375, 17.75, 15.875, 13.625, 16.875, 15.875, 19.125, 15.4375, 16.625, 18.875, 16.125, 15.875, 19.125, 20.125, 16.625, 15.1875, 16.125, 15.625, 16.875, 16.375, 18.0, 18.0, 16.875, 14.5, 17.5, 15.625, 16.625, 17.75, 18.625, 16.375, 22.375, 14.0, 16.625, 14.9375, 14.0, 14.25, 15.4375, 14.0, 18.875, 14.5, 19.5, 16.625, 18.875, 17.25, 14.9375, 18.0, 18.875, 16.375, 17.75, 19.75, 14.5, 15.625, 16.875, 17.5, 14.6875, 18.625, 16.875, 18.875, 16.375, 18.875, 15.4375, 17.5, 14.25, 13.0, 16.125, 18.625, 14.6875, 16.125, 16.125, 18.25, 12.75, 15.4375, 15.625, 16.125, 16.375, 16.125, 16.375, 15.1875, 15.875, 16.375, 14.9375, 15.625, 15.875, 13.0, 16.625, 15.4375, 16.375, 16.375, 19.5, 17.75, 20.375, 14.5, 14.5, 17.5, 14.5, 14.25, 13.625, 18.875, 15.1875, 16.875, 18.0, 17.5, 15.1875, 15.1875, 17.25, 16.625, 15.1875, 16.125, 16.875, 17.75, 14.9375, 14.6875, 18.875, 16.125, 15.625, 13.8125, 18.25, 14.5, 14.5, 16.875, 18.625, 18.625, 18.25, 16.375, 15.4375, 14.5, 15.4375, 16.375, 16.125, 13.8125, 13.625, 18.0, 18.0, 13.375, 15.4375, 16.625, 18.0, 16.125, 14.0, 12.75, 18.0, 16.625, 15.875, 17.75, 15.625, 16.375, 13.0, 17.5, 15.4375, 14.6875, 14.25, 17.25, 14.6875, 16.625, 17.75, 14.6875, 16.375, 16.125, 16.375, 15.625, 15.625, 15.4375, 15.625, 13.8125, 18.875, 14.6875, 17.25, 14.9375, 13.375, 13.625, 13.0, 19.5, 16.375, 13.8125, 15.625, 15.875, 12.75, 15.625, 16.625, 16.625, 13.1875, 15.4375, 13.375, 18.25, 18.625, 15.625, 15.875, 17.25, 16.875, 14.5, 14.5, 14.5, 14.5, 16.875, 15.1875, 15.625, 18.0, 15.625, 15.875, 13.625, 15.1875, 13.8125, 16.375, 13.0, 16.375, 17.5, 13.8125, 14.6875, 19.125, 16.375, 14.5, 14.9375, 13.1875, 17.25, 14.9375, 15.4375, 16.375, 16.875, 17.75, 20.375, 13.375, 15.625, 16.375, 16.375, 15.1875, 14.6875, 15.1875, 18.0, 13.375, 16.625, 13.625, 13.1875, 18.625, 13.375, 12.375, 14.5, 15.1875, 13.625, 13.1875, 17.75, 14.9375, 13.375, 16.125, 16.875, 15.625, 13.625, 16.125, 15.875, 14.25, 13.8125, 18.25, 15.1875, 14.25, 15.875, 15.4375, 17.25, 15.875, 15.875, 16.875, 16.375, 15.4375, 14.5, 14.25, 17.5, 17.25, 16.375, 13.8125, 15.625, 15.625, 15.1875, 16.375, 14.0, 15.1875, 16.375, 17.25, 14.5, 14.5, 14.9375, 12.75, 16.375, 11.4375, 14.9375, 12.5625, 16.375, 17.25, 11.625, 14.9375, 13.1875, 14.9375, 14.6875, 13.375, 18.875, 13.375, 13.1875, 17.5, 15.1875, 14.9375, 13.375, 15.625, 14.6875, 16.125, 14.5, 14.5, 16.625, 12.1875, 15.4375, 15.625, 18.25, 14.9375, 16.375, 12.375, 14.6875, 15.875, 12.1875, 15.625, 14.9375, 16.375, 15.4375, 13.375, 14.5, 18.25, 14.6875, 13.375, 14.6875, 14.0, 13.625, 13.0, 13.375, 17.75, 15.625, 12.1875, 18.0, 13.8125, 13.0, 14.6875, 13.8125, 11.8125, 12.5625, 14.6875, 15.4375, 16.375, 14.0, 15.1875, 14.25, 14.25, 13.8125, 16.875, 11.25, 14.9375, 12.75, 16.375, 15.875, 13.0, 15.4375, 16.625, 16.375, 12.75, 15.1875, 15.625, 12.75, 16.125, 13.375, 13.625, 12.75, 16.375, 13.625, 16.375, 14.0, 13.625, 15.4375, 14.25, 15.1875, 17.5, 12.375, 12.75, 15.4375, 14.9375, 14.5, 16.375, 14.0, 14.9375, 12.375, 12.75, 16.625, 12.375, 15.1875, 15.4375, 14.0, 15.4375, 12.75, 13.1875, 11.625, 14.5, 13.1875, 17.5, 13.8125, 14.5, 14.9375, 15.625, 13.0, 12.375, 16.625, 14.9375, 14.0, 9.8125, 12.75, 13.1875, 11.8125, 16.625, 14.5, 12.0, 14.25, 16.375, 16.375, 12.5625, 15.1875, 15.4375, 12.1875, 16.375, 14.0, 14.0, 16.125, 13.1875, 13.1875, 14.0, 13.625, 14.5, 12.375, 15.1875, 13.375, 15.4375, 11.25, 12.375, 13.8125, 11.4375, 12.375, 14.6875, 14.0, 16.375, 14.0, 13.375, 14.9375, 16.125, 13.8125, 15.875, 12.5625, 14.9375, 13.1875, 12.375, 15.875, 14.25, 11.4375, 13.375, 12.75, 12.5625, 13.1875, 13.8125, 13.375, 16.875, 11.8125, 14.25, 14.0, 13.625, 10.5625, 13.1875, 13.375, 12.1875, 9.375, 14.9375, 13.625, 14.9375, 14.6875, 13.375, 14.25, 14.9375, 12.0, 14.0, 12.375, 13.375, 10.9375, 13.0, 13.625, 12.375, 14.5, 14.6875, 15.1875, 11.125, 13.375, 12.75, 12.1875, 10.4375, 12.75, 12.375, 12.1875, 11.8125, 11.25, 14.25, 11.4375, 12.375, 12.75, 11.625, 13.8125, 14.9375, 13.1875, 10.25, 11.4375, 11.625, 12.5625, 10.75, 10.25]","[0.0, 0.046630859375, 0.083740234375, 0.07954102009534836, 0.10795898735523224, 0.098388671875, 0.09819336235523224, 0.10566406697034836, 0.10986328125, 0.11464843899011612, 0.13071289658546448, 0.10844726860523224, 0.10981445759534836, 0.10610351711511612, 0.12407226860523224, 0.10283203423023224, 0.12890625, 0.136962890625, 0.118896484375, 0.13364258408546448, 0.10087890923023224, 0.14077149331569672, 0.12065429985523224, 0.15839843451976776, 0.10971679538488388, 0.15322266519069672, 0.12636719644069672, 0.12490234524011612, 0.15390625596046448, 0.127685546875, 0.17192383110523224, 0.14370118081569672, 0.14326171576976776, 0.14863280951976776, 0.14340820908546448, 0.15131835639476776, 0.125, 0.16323243081569672, 0.150390625, 0.15639649331569672, 0.15966796875, 0.158203125, 0.13652344048023224, 0.16318359971046448, 0.16586914658546448, 0.16616211831569672, 0.13193359971046448, 0.12397461384534836, 0.1298828125, 0.16811524331569672, 0.18779297173023224, 0.16596679389476776, 0.16611328721046448, 0.17133788764476776, 0.13994140923023224, 0.18535156548023224, 0.15043945610523224, 0.14296875894069672, 0.1787109375, 0.191650390625, 0.16220703721046448, 0.15312500298023224, 0.13081054389476776, 0.186279296875, 0.16704101860523224, 0.15605469048023224, 0.15571288764476776, 0.16977539658546448, 0.16220703721046448, 0.16879883408546448, 0.16411133110523224, 0.16562500596046448, 0.16469727456569672, 0.188720703125, 0.153076171875, 0.17153321206569672, 0.191650390625, 0.16523437201976776, 0.16474609076976776, 0.17988280951976776, 0.14194336533546448, 0.14028321206569672, 0.15327148139476776, 0.15390625596046448, 0.17055664956569672, 0.187255859375, 0.20122070610523224, 0.19428710639476776, 0.189453125, 0.18798828125, 0.20654296875, 0.17055664956569672, 0.17343750596046448, 0.14785157144069672, 0.21513672173023224, 0.18745116889476776, 0.20493164658546448, 0.20375977456569672, 0.19404296576976776, 0.18330077826976776, 0.14453125, 0.18662109971046448, 0.20087890326976776, 0.22792969644069672, 0.18535156548023224, 0.17514649033546448, 0.22412109375, 0.223388671875, 0.19384765625, 0.16806641221046448, 0.18325196206569672, 0.21342773735523224, 0.20205079019069672, 0.18940429389476776, 0.17587891221046448, 0.16254882514476776, 0.20981445908546448, 0.17709961533546448, 0.227294921875, 0.17119140923023224, 0.19765625894069672, 0.14536133408546448, 0.17436523735523224, 0.198974609375, 0.19077149033546448, 0.1767578125, 0.16132812201976776, 0.2119140625, 0.18193359673023224, 0.20493164658546448, 0.223388671875, 0.19355468451976776, 0.19462890923023224, 0.22573243081569672, 0.263427734375, 0.16718749701976776, 0.15449218451976776, 0.18784180283546448, 0.214111328125, 0.21875, 0.20244140923023224, 0.25410157442092896, 0.19692383706569672, 0.187744140625, 0.16616211831569672, 0.18901367485523224, 0.16684570908546448, 0.24350586533546448, 0.22817383706569672, 0.18466797471046448, 0.18735352158546448, 0.19980469346046448, 0.18925781548023224, 0.21235351264476776, 0.15898437798023224, 0.224853515625, 0.21494141221046448, 0.22119140625, 0.234130859375, 0.24321289360523224, 0.20366211235523224, 0.225341796875, 0.20864258706569672, 0.19648437201976776, 0.2547851502895355, 0.22958984971046448, 0.20986329019069672, 0.20991210639476776, 0.24057617783546448, 0.23325195908546448, 0.17963866889476776, 0.24677734076976776, 0.24423828721046448, 0.22036133706569672, 0.19257812201976776, 0.21137695014476776, 0.23354493081569672, 0.22568359971046448, 0.17861329019069672, 0.24399414658546448, 0.201904296875, 0.23989258706569672, 0.24033203721046448, 0.2527832090854645, 0.23906250298023224, 0.185791015625, 0.2818847596645355, 0.21259765326976776, 0.2762207090854645, 0.21098633110523224, 0.25776368379592896, 0.237060546875, 0.24843750894069672, 0.2765136659145355, 0.22446289658546448, 0.16611328721046448, 0.18510742485523224, 0.23422852158546448, 0.22983399033546448, 0.25581055879592896, 0.23554687201976776, 0.23276367783546448, 0.26445314288139343, 0.21381835639476776, 0.21474610269069672, 0.2745117247104645, 0.23930664360523224, 0.19775390625, 0.21518555283546448, 0.24858398735523224, 0.205078125, 0.26640626788139343, 0.22768555581569672, 0.21601562201976776, 0.222412109375, 0.21210937201976776, 0.21879883110523224, 0.17856445908546448, 0.19545899331569672, 0.2610839903354645, 0.2632812559604645, 0.23378907144069672, 0.24794922769069672, 0.203125, 0.23779296875, 0.2601562440395355, 0.169677734375, 0.18798828125, 0.224365234375, 0.20717774331569672, 0.22739258408546448, 0.22138671576976776, 0.225830078125, 0.25419923663139343, 0.20522461831569672, 0.24824218451976776, 0.24868164956569672, 0.21259765326976776, 0.24458007514476776, 0.24370117485523224, 0.21186523139476776, 0.24614258110523224, 0.21586914360523224, 0.20571289956569672, 0.23061524331569672, 0.207275390625, 0.25732421875, 0.198486328125, 0.20976562798023224, 0.22963868081569672, 0.23261718451976776, 0.201171875, 0.25507813692092896, 0.23872070014476776, 0.235595703125, 0.22690430283546448, 0.21025390923023224, 0.17812500894069672, 0.22065429389476776, 0.22456054389476776, 0.24350586533546448, 0.22988282144069672, 0.22250977158546448, 0.24912109971046448, 0.17866210639476776, 0.2900390625, 0.20146484673023224, 0.2525878846645355, 0.23344726860523224, 0.21533203125, 0.21088866889476776, 0.23334960639476776, 0.192626953125, 0.21469727158546448, 0.26728516817092896, 0.21152344346046448, 0.23735351860523224, 0.21416015923023224, 0.24658203125, 0.2587890625, 0.23471680283546448, 0.20849609375, 0.24355469644069672, 0.2586425840854645, 0.17719726264476776, 0.22866211831569672, 0.18398438394069672, 0.23696289956569672, 0.22900390625, 0.20571289956569672, 0.21826171875, 0.18203125894069672, 0.18784180283546448, 0.23017577826976776, 0.22773437201976776, 0.239013671875, 0.25537109375, 0.221923828125, 0.2693847715854645, 0.24404297769069672, 0.22036133706569672, 0.24912109971046448, 0.17998047173023224, 0.229248046875, 0.2734375, 0.22890625894069672, 0.21835938096046448, 0.21503905951976776, 0.2711425721645355, 0.2642578184604645, 0.26899415254592896, 0.23666992783546448, 0.2884277403354645, 0.27392578125, 0.20361328125, 0.288818359375, 0.2765136659145355, 0.20966796576976776, 0.252197265625, 0.25336915254592896, 0.20976562798023224, 0.2677246034145355, 0.280029296875, 0.2820800840854645, 0.16162109375, 0.22348633408546448, 0.22319336235523224, 0.2572265565395355, 0.18569336831569672, 0.25166016817092896, 0.19389648735523224, 0.2001953125, 0.189208984375, 0.21259765326976776, 0.2640136778354645, 0.21748046576976776, 0.2571777403354645, 0.27880859375, 0.23681640625, 0.18271484971046448, 0.23891602456569672, 0.2684082090854645, 0.27778321504592896, 0.3033203184604645, 0.186767578125, 0.22866211831569672, 0.27641603350639343, 0.24746094644069672, 0.23671875894069672, 0.23256836831569672, 0.25048828125, 0.252685546875, 0.22109375894069672, 0.2528320252895355, 0.2724609375, 0.23652343451976776, 0.24648438394069672, 0.27392578125, 0.206787109375, 0.218994140625, 0.2645507752895355, 0.21870116889476776, 0.27978515625, 0.21049804985523224, 0.25390625, 0.23466797173023224, 0.18789063394069672, 0.24643555283546448, 0.24150390923023224, 0.20747070014476776, 0.29936525225639343, 0.22080078721046448, 0.29443359375, 0.2611328065395355, 0.22397461533546448, 0.2566894590854645, 0.28276368975639343, 0.2684570252895355, 0.2647460997104645, 0.2682128846645355, 0.2721191346645355, 0.32231447100639343, 0.29150390625, 0.2589355409145355, 0.23740234971046448, 0.21425782144069672, 0.2860351502895355, 0.21914063394069672, 0.22568359971046448, 0.277099609375, 0.278564453125, 0.24257813394069672, 0.20034180581569672, 0.2667480409145355, 0.22456054389476776, 0.22006836533546448, 0.249755859375, 0.27055665850639343, 0.226318359375, 0.24497070908546448, 0.24155274033546448, 0.24174804985523224, 0.2566894590854645, 0.24082031846046448, 0.24853515625, 0.24277344346046448, 0.24833984673023224, 0.20673827826976776, 0.24624024331569672, 0.25688478350639343, 0.251708984375, 0.27119141817092896, 0.21572266519069672, 0.22934570908546448, 0.218994140625, 0.28227540850639343, 0.23115234076976776, 0.17802734673023224, 0.21147461235523224, 0.23779296875, 0.191162109375, 0.21137695014476776, 0.23500977456569672, 0.22412109375, 0.276611328125, 0.24257813394069672, 0.25981447100639343, 0.2646484375, 0.23041991889476776, 0.21767579019069672, 0.29633790254592896, 0.23964844644069672, 0.23544922471046448, 0.28300783038139343, 0.22822265326976776, 0.24799804389476776, 0.23066405951976776, 0.2782226502895355, 0.24589844048023224, 0.3169921934604645, 0.2730956971645355, 0.24311523139476776, 0.23906250298023224, 0.23398438096046448, 0.23808594048023224, 0.23979492485523224, 0.266845703125, 0.23935547471046448, 0.18935547769069672, 0.25336915254592896, 0.24506835639476776, 0.20478515326976776, 0.21103516221046448, 0.23212890326976776, 0.22822265326976776, 0.29707032442092896, 0.2542968690395355, 0.2962402403354645, 0.26274415850639343, 0.19877929985523224, 0.24008789658546448, 0.26093751192092896, 0.24545899033546448, 0.23603515326976776, 0.2626953125, 0.2591308653354645, 0.22221679985523224, 0.22158204019069672, 0.21040038764476776, 0.28300783038139343, 0.22407226264476776, 0.24814453721046448, 0.2501464784145355, 0.2552246153354645, 0.24985352158546448, 0.24609375, 0.214599609375, 0.2918457090854645, 0.17265625298023224, 0.24296875298023224, 0.2099609375, 0.24550782144069672, 0.26606446504592896, 0.25224611163139343, 0.2850097715854645, 0.2616210877895355, 0.24428711831569672, 0.25825196504592896, 0.25727540254592896, 0.3199706971645355, 0.3046875, 0.24580077826976776, 0.29829102754592896, 0.2706054747104645, 0.19619141519069672, 0.22236327826976776, 0.2642578184604645, 0.23764649033546448, 0.23749999701976776, 0.26396486163139343, 0.2560058534145355, 0.2500976622104645, 0.25346681475639343, 0.30424806475639343, 0.26054689288139343, 0.2860351502895355, 0.24868164956569672, 0.18828125298023224, 0.24091796576976776, 0.227294921875, 0.30742189288139343, 0.2525878846645355, 0.31010743975639343, 0.27031251788139343, 0.22954101860523224, 0.26152345538139343, 0.2542968690395355, 0.21210937201976776, 0.2859863340854645, 0.272216796875, 0.22309570014476776, 0.22607421875, 0.2677246034145355, 0.24687500298023224, 0.21821288764476776, 0.22622071206569672, 0.24428711831569672, 0.267822265625, 0.23544922471046448, 0.2581543028354645, 0.21230469644069672, 0.30683594942092896, 0.2816406190395355, 0.23969726264476776, 0.20024414360523224, 0.2216796875, 0.23583984375, 0.23056641221046448, 0.26655274629592896, 0.2720703184604645, 0.2921386659145355, 0.2545410096645355, 0.21308593451976776, 0.25288087129592896, 0.24550782144069672, 0.3021484315395355, 0.21528320014476776, 0.24892579019069672, 0.2779296934604645, 0.25517579913139343, 0.25947266817092896, 0.2589355409145355, 0.22026367485523224, 0.25126954913139343, 0.29902344942092896, 0.23647461831569672, 0.27031251788139343, 0.283447265625, 0.23491211235523224, 0.28398439288139343, 0.2642578184604645, 0.273681640625, 0.204345703125, 0.26484376192092896, 0.22026367485523224, 0.25629884004592896, 0.2979492247104645, 0.25927734375, 0.3399902284145355, 0.18696288764476776, 0.28535157442092896, 0.28510743379592896, 0.28193360567092896, 0.25385743379592896, 0.19589844346046448, 0.2862792909145355, 0.27490234375, 0.2548828125, 0.2421875, 0.228759765625, 0.22504882514476776, 0.2774902284145355, 0.295654296875, 0.30278322100639343, 0.245361328125, 0.21220703423023224, 0.3001953065395355, 0.25458985567092896, 0.23789063096046448, 0.23876953125, 0.22939454019069672, 0.262451171875, 0.28886720538139343, 0.26005861163139343, 0.28120118379592896, 0.2880859375, 0.25126954913139343, 0.22900390625, 0.29155275225639343, 0.287353515625, 0.2540527284145355, 0.23164062201976776, 0.21840821206569672, 0.24458007514476776, 0.24189452826976776, 0.23911133408546448, 0.23500977456569672, 0.24936524033546448, 0.24091796576976776, 0.2776855528354645, 0.275390625, 0.24531249701976776, 0.3155273497104645, 0.26201173663139343, 0.20688477158546448, 0.236572265625, 0.18120117485523224, 0.25102540850639343, 0.2421875, 0.2647949159145355, 0.22836914658546448, 0.28632813692092896, 0.3014160096645355, 0.2841796875, 0.20966796576976776, 0.22329102456569672, 0.29716798663139343, 0.299072265625, 0.2685546875, 0.18779297173023224, 0.25239259004592896, 0.22807617485523224, 0.23583984375, 0.28950196504592896, 0.2711425721645355, 0.28325197100639343, 0.22739258408546448, 0.26386719942092896, 0.32719728350639343, 0.29741212725639343, 0.2549804747104645, 0.24887695908546448, 0.26318359375, 0.2542968690395355, 0.21611328423023224, 0.2730468809604645, 0.2577148377895355, 0.20283202826976776, 0.2618164122104645, 0.29326173663139343, 0.2828613221645355, 0.23833008110523224, 0.24125976860523224, 0.2640136778354645, 0.32255861163139343, 0.23300781846046448, 0.22373047471046448, 0.2726074159145355, 0.22880859673023224, 0.22021484375, 0.24311523139476776, 0.3099609315395355, 0.3543457090854645, 0.3150878846645355, 0.21250000596046448, 0.26513671875, 0.23828125, 0.2728515565395355, 0.2801757752895355, 0.229736328125, 0.22021484375, 0.24321289360523224, 0.29780274629592896, 0.24150390923023224, 0.23247070610523224, 0.28144532442092896, 0.2837890684604645, 0.23227539658546448, 0.2992187440395355, 0.264892578125, 0.22895507514476776, 0.240234375, 0.25419923663139343, 0.27685546875, 0.262451171875, 0.27177736163139343, 0.302001953125, 0.24624024331569672, 0.255859375, 0.23173828423023224, 0.23759765923023224, 0.280517578125, 0.2607421875, 0.267578125, 0.23188476264476776, 0.32402345538139343, 0.28740236163139343, 0.23823241889476776, 0.262939453125, 0.2520507872104645, 0.221435546875, 0.2527832090854645, 0.306396484375, 0.23466797173023224, 0.30390626192092896, 0.286376953125, 0.25537109375, 0.311767578125, 0.24526368081569672, 0.24848632514476776, 0.23359374701976776, 0.28486329317092896, 0.28925782442092896, 0.265380859375, 0.26738283038139343, 0.24277344346046448, 0.23876953125, 0.24560546875, 0.18208007514476776, 0.242919921875, 0.29877930879592896, 0.30561524629592896, 0.2723632752895355, 0.2544921934604645, 0.29340821504592896, 0.2599121034145355, 0.2964843809604645, 0.2786621153354645, 0.25712892413139343, 0.2859863340854645, 0.23320312798023224, 0.22905273735523224, 0.2611328065395355, 0.24838867783546448, 0.25678712129592896, 0.28593751788139343, 0.2979492247104645, 0.27387696504592896, 0.322998046875, 0.27119141817092896, 0.2774414122104645, 0.31499025225639343, 0.2610839903354645, 0.24873046576976776, 0.2735351622104645, 0.21586914360523224, 0.209228515625, 0.19990234076976776, 0.26708984375, 0.22202149033546448, 0.306884765625, 0.267333984375, 0.2914062440395355, 0.269287109375, 0.24497070908546448, 0.2333984375, 0.29082033038139343, 0.3165527284145355, 0.26606446504592896, 0.26240235567092896, 0.2574706971645355, 0.26762697100639343, 0.33544921875, 0.29375001788139343, 0.3092285096645355, 0.27949219942092896, 0.25537109375, 0.23344726860523224, 0.3121093809604645, 0.221435546875, 0.25737306475639343, 0.21201172471046448, 0.2621093690395355, 0.24169921875, 0.26953125, 0.20380859076976776, 0.27485352754592896, 0.23027344048023224, 0.21904297173023224, 0.22641602158546448, 0.2743164002895355, 0.28129884600639343, 0.29472658038139343, 0.2937988340854645, 0.24882812798023224, 0.22128906846046448, 0.262451171875, 0.19589844346046448, 0.22524414956569672, 0.331298828125, 0.259765625, 0.24423828721046448, 0.24130859971046448, 0.2830566465854645, 0.20454101264476776, 0.23662109673023224, 0.24296875298023224, 0.26982423663139343, 0.25048828125, 0.23007813096046448, 0.29716798663139343, 0.25517579913139343, 0.27558594942092896, 0.2735839784145355, 0.25654298067092896, 0.24667969346046448, 0.31831055879592896, 0.32011720538139343, 0.2542968690395355, 0.21391601860523224, 0.21904297173023224, 0.28022462129592896, 0.30146485567092896, 0.3111816346645355, 0.2811523377895355, 0.24916993081569672, 0.21894530951976776, 0.23227539658546448, 0.29667970538139343, 0.26323243975639343, 0.2640136778354645, 0.2757324278354645, 0.19829101860523224, 0.2745117247104645, 0.28046876192092896, 0.23125000298023224, 0.24790039658546448, 0.2823242247104645, 0.22504882514476776, 0.22255860269069672, 0.21982422471046448, 0.3187499940395355, 0.28950196504592896, 0.24384765326976776, 0.29829102754592896, 0.22905273735523224, 0.21240234375, 0.26411134004592896, 0.24868164956569672, 0.216796875, 0.2781738340854645, 0.24350586533546448, 0.30268555879592896, 0.2999023497104645, 0.3016601502895355, 0.22163085639476776, 0.3511718809604645, 0.26435548067092896, 0.22006836533546448, 0.248779296875, 0.24672852456569672, 0.316650390625, 0.31635743379592896, 0.27373048663139343, 0.25004884600639343, 0.3087402284145355, 0.287353515625, 0.24750976264476776, 0.22700195014476776, 0.2620605528354645, 0.30986329913139343, 0.30976563692092896, 0.28203126788139343, 0.22358398139476776, 0.30156251788139343, 0.2530273497104645, 0.25078126788139343, 0.255126953125, 0.22163085639476776, 0.2623046934604645, 0.3301757872104645, 0.2698730528354645, 0.23593750596046448, 0.25971680879592896, 0.27714845538139343, 0.27934572100639343, 0.23374024033546448, 0.29057618975639343, 0.32060548663139343, 0.3189941346645355, 0.25751954317092896, 0.23613281548023224, 0.32329103350639343, 0.289306640625, 0.3042968809604645, 0.26972657442092896, 0.24252930283546448, 0.321044921875, 0.26513671875, 0.26801759004592896, 0.20693360269069672, 0.2852539122104645, 0.30791017413139343, 0.27714845538139343, 0.2682128846645355, 0.2782226502895355, 0.30229493975639343, 0.27705079317092896, 0.2548828125, 0.2562011778354645, 0.29082033038139343, 0.24208985269069672, 0.2574706971645355, 0.238037109375, 0.2940917909145355, 0.3462890684604645, 0.26752930879592896, 0.2530761659145355, 0.24941407144069672, 0.25390625, 0.29560548067092896, 0.28564453125, 0.302978515625, 0.21933594346046448, 0.2652343809604645, 0.24062500894069672, 0.3299316465854645, 0.27934572100639343, 0.26318359375, 0.25629884004592896, 0.32500001788139343, 0.240966796875, 0.23715820908546448, 0.229248046875, 0.28510743379592896, 0.23759765923023224, 0.2618164122104645, 0.269287109375, 0.2740234434604645, 0.2923339903354645, 0.26318359375, 0.26997071504592896, 0.31904298067092896, 0.30571290850639343, 0.19487304985523224, 0.27543947100639343, 0.296630859375, 0.34492188692092896, 0.23105469346046448, 0.20522461831569672, 0.25092774629592896, 0.2880859375, 0.2510742247104645, 0.27099609375, 0.28691408038139343, 0.24965821206569672, 0.32861328125, 0.26103517413139343, 0.24838867783546448, 0.24746094644069672, 0.29130861163139343, 0.21528320014476776, 0.278076171875, 0.27763673663139343, 0.2569335997104645, 0.2721191346645355, 0.23417969048023224, 0.2759765684604645, 0.31611329317092896, 0.32329103350639343, 0.31230470538139343, 0.29619142413139343, 0.23105469346046448, 0.246337890625, 0.247802734375, 0.30859375, 0.33012697100639343, 0.24482421576976776, 0.19951172173023224, 0.2533203065395355, 0.23369140923023224, 0.2633300721645355, 0.23686523735523224, 0.2854980528354645, 0.22636719048023224, 0.2901855409145355, 0.28056642413139343, 0.20834961533546448, 0.32373046875, 0.20703125, 0.24301758408546448, 0.2937988340854645, 0.23286132514476776, 0.28935548663139343, 0.28081056475639343, 0.21879883110523224, 0.23466797173023224, 0.3282226622104645, 0.26176759600639343, 0.26123046875, 0.3075195252895355, 0.24033203721046448, 0.263671875, 0.27607423067092896, 0.25249025225639343, 0.27519533038139343, 0.29462891817092896, 0.2892089784145355, 0.27778321504592896, 0.2864746153354645, 0.2684082090854645, 0.24091796576976776, 0.29472658038139343, 0.2997070252895355, 0.29414063692092896, 0.2642578184604645, 0.2635253965854645, 0.3482421934604645, 0.30078125, 0.24169921875, 0.284423828125, 0.26665040850639343, 0.2835449278354645, 0.2733398377895355, 0.2662109434604645, 0.2745605409145355, 0.2914062440395355, 0.26191407442092896, 0.30083009600639343, 0.2577148377895355, 0.25019532442092896, 0.2813964784145355, 0.28886720538139343, 0.30390626192092896, 0.27958986163139343, 0.31635743379592896, 0.29912111163139343, 0.2571777403354645, 0.27978515625, 0.25019532442092896, 0.27783203125, 0.2677246034145355, 0.27177736163139343, 0.25126954913139343, 0.33833009004592896, 0.2681640684604645, 0.3101562559604645, 0.2676757872104645, 0.2969726622104645, 0.24208985269069672, 0.25200197100639343, 0.34516602754592896, 0.30439454317092896, 0.2838378846645355, 0.261474609375, 0.27338868379592896, 0.2604003846645355, 0.25786134600639343, 0.22504882514476776, 0.2936035096645355, 0.28837892413139343, 0.28203126788139343, 0.28105470538139343, 0.294677734375, 0.2843261659145355, 0.26884767413139343, 0.2662597596645355, 0.2892089784145355, 0.243408203125, 0.2552246153354645, 0.3111816346645355, 0.293212890625, 0.28496095538139343, 0.274169921875, 0.25361329317092896, 0.291015625, 0.20375977456569672, 0.2735839784145355, 0.25166016817092896, 0.29267579317092896, 0.18935547769069672, 0.22089843451976776, 0.32099610567092896, 0.18901367485523224, 0.34589844942092896, 0.2962402403354645, 0.2638183534145355, 0.2593750059604645, 0.250732421875, 0.3095703125, 0.29423829913139343, 0.27197265625, 0.2843261659145355, 0.26752930879592896, 0.2815918028354645, 0.23935547471046448, 0.21699218451976776, 0.3116210997104645, 0.34174805879592896, 0.23466797173023224, 0.29106447100639343, 0.271484375, 0.32470703125, 0.18081055581569672, 0.2975097596645355, 0.26801759004592896, 0.26982423663139343, 0.31201171875, 0.26459962129592896, 0.282958984375, 0.22495117783546448, 0.20317383110523224, 0.2853027284145355, 0.22421875596046448, 0.26728516817092896, 0.282958984375, 0.23906250298023224, 0.2613281309604645, 0.285888671875, 0.26220703125, 0.27392578125, 0.22802734375, 0.32373046875, 0.3095703125, 0.28466796875, 0.31425783038139343, 0.296142578125, 0.274169921875, 0.2627929747104645, 0.228271484375, 0.26030275225639343, 0.277587890625, 0.3599609434604645, 0.23920898139476776, 0.28510743379592896, 0.26923829317092896, 0.2530273497104645, 0.26850587129592896, 0.3076171875, 0.27363282442092896, 0.25849610567092896, 0.297607421875, 0.2884277403354645, 0.23388671875, 0.26240235567092896, 0.2699218690395355, 0.26713868975639343, 0.2972656190395355, 0.22651366889476776, 0.26708984375, 0.30473634600639343, 0.25605469942092896, 0.29472658038139343, 0.2914062440395355, 0.3052734434604645, 0.2960449159145355, 0.24033203721046448, 0.26347658038139343, 0.2769531309604645, 0.29633790254592896, 0.24624024331569672, 0.3152832090854645, 0.28955078125, 0.25, 0.2815918028354645, 0.29121094942092896, 0.2979492247104645, 0.3104003965854645, 0.21870116889476776, 0.22958984971046448, 0.21533203125, 0.3060058653354645, 0.2770019471645355, 0.30170899629592896, 0.23061524331569672, 0.3017578125, 0.333251953125, 0.268310546875, 0.2987304627895355, 0.29936525225639343, 0.28046876192092896, 0.30488282442092896, 0.3089355528354645, 0.2808593809604645, 0.28291016817092896, 0.3204589784145355, 0.23969726264476776, 0.264404296875, 0.3321289122104645, 0.3202148377895355, 0.24062500894069672, 0.29838868975639343, 0.2958007752895355, 0.255615234375, 0.26274415850639343, 0.2950195372104645, 0.314453125, 0.20864258706569672, 0.24667969346046448, 0.25126954913139343, 0.26372072100639343, 0.2626953125, 0.29443359375, 0.2679687440395355, 0.22373047471046448, 0.26484376192092896, 0.28315430879592896, 0.34614259004592896, 0.2578125, 0.28632813692092896, 0.2545410096645355, 0.2933105528354645, 0.3079589903354645, 0.2926269471645355, 0.30781251192092896, 0.27705079317092896, 0.31591796875, 0.3057617247104645, 0.2672363221645355, 0.290283203125, 0.27534180879592896, 0.2643066346645355, 0.2538085877895355, 0.28276368975639343, 0.290283203125, 0.260009765625, 0.315673828125, 0.24653320014476776, 0.22666016221046448, 0.2708984315395355, 0.3113769590854645, 0.30180665850639343, 0.19853515923023224, 0.27470704913139343, 0.24746094644069672, 0.27348634600639343, 0.3074707090854645, 0.34809571504592896, 0.3207031190395355, 0.2701660096645355, 0.3167480528354645, 0.3268066346645355, 0.29877930879592896, 0.2581543028354645, 0.2720703184604645, 0.29345703125, 0.28203126788139343, 0.3238769471645355, 0.25996094942092896, 0.2850585877895355, 0.26459962129592896, 0.28706055879592896, 0.287841796875, 0.32524415850639343, 0.235595703125, 0.2550292909145355, 0.27421876788139343, 0.3268066346645355, 0.27714845538139343, 0.2837890684604645, 0.2750000059604645, 0.28076171875, 0.346435546875, 0.24448242783546448, 0.3076171875, 0.24824218451976776, 0.2853027284145355, 0.2577148377895355, 0.2711425721645355, 0.24916993081569672, 0.2542968690395355, 0.298095703125, 0.26240235567092896, 0.218505859375, 0.2774902284145355, 0.29130861163139343, 0.23593750596046448, 0.3231445252895355, 0.32177734375, 0.2877441346645355, 0.306396484375, 0.27412110567092896, 0.26801759004592896, 0.31787109375, 0.3084472715854645, 0.3180175721645355, 0.28569337725639343, 0.23793946206569672, 0.3360839784145355, 0.2716308534145355, 0.30986329913139343, 0.26323243975639343, 0.27519533038139343, 0.2782226502895355, 0.28564453125, 0.3064941465854645, 0.3562988340854645, 0.26225587725639343, 0.22031250596046448, 0.216064453125, 0.24965821206569672, 0.26435548067092896, 0.3409667909145355, 0.233642578125, 0.23959961533546448, 0.29594728350639343, 0.27001953125, 0.279296875, 0.27373048663139343, 0.2869628965854645, 0.21835938096046448, 0.286376953125, 0.2833496034145355, 0.32026368379592896, 0.2765136659145355, 0.24350586533546448, 0.2511230409145355, 0.30029296875, 0.26904296875, 0.30078125, 0.25629884004592896, 0.26313477754592896, 0.328857421875, 0.265625, 0.22319336235523224, 0.2906738221645355, 0.3031249940395355, 0.279052734375, 0.25048828125, 0.3020996153354645, 0.24741211533546448, 0.3111328184604645, 0.3050781190395355, 0.27958986163139343, 0.27836915850639343, 0.24643555283546448, 0.31416016817092896, 0.260009765625, 0.26435548067092896, 0.2666015625, 0.336181640625, 0.23930664360523224, 0.31279298663139343, 0.25434571504592896, 0.2835937440395355, 0.2767089903354645, 0.241943359375, 0.23471680283546448, 0.26225587725639343, 0.246826171875, 0.3504394590854645, 0.2579101622104645, 0.2918457090854645, 0.24174804985523224, 0.2913574278354645, 0.2789550721645355, 0.28608399629592896, 0.2820800840854645, 0.25541993975639343, 0.2674804627895355, 0.26152345538139343, 0.2943359315395355, 0.33154296875, 0.33344727754592896, 0.2713867127895355, 0.27729493379592896, 0.3299316465854645, 0.30424806475639343, 0.2451171875, 0.268798828125, 0.26508790254592896, 0.3489746153354645, 0.22690430283546448, 0.2581543028354645, 0.29277345538139343, 0.23784179985523224, 0.2899414002895355, 0.25922852754592896, 0.28691408038139343, 0.2684570252895355, 0.28071290254592896, 0.30390626192092896, 0.29248046875, 0.2735351622104645, 0.2701171934604645, 0.26469728350639343, 0.2900390625, 0.2571777403354645, 0.2618652284145355, 0.256103515625, 0.3141113221645355, 0.26738283038139343, 0.28369140625, 0.2757324278354645, 0.34296876192092896, 0.28178712725639343, 0.27226564288139343, 0.27177736163139343, 0.24741211533546448, 0.28759765625, 0.23828125, 0.2574706971645355, 0.313720703125, 0.25053712725639343, 0.3087402284145355, 0.2552734315395355, 0.2880859375, 0.30000001192092896, 0.2826171815395355, 0.2665039002895355, 0.21259765326976776, 0.33442384004592896, 0.23554687201976776, 0.3353515565395355, 0.30170899629592896, 0.26811525225639343, 0.27827149629592896, 0.30156251788139343, 0.25776368379592896, 0.2835449278354645, 0.3357910215854645, 0.32568359375, 0.2876953184604645, 0.2940429747104645, 0.3274902403354645, 0.28569337725639343, 0.28032228350639343, 0.27812501788139343, 0.338623046875, 0.28837892413139343, 0.23193359375, 0.3130859434604645, 0.250732421875, 0.26127931475639343, 0.24721680581569672, 0.29863283038139343, 0.2776855528354645, 0.3478027284145355, 0.2947753965854645, 0.3287109434604645, 0.2923828065395355, 0.2586914002895355, 0.27778321504592896, 0.34624025225639343, 0.3197265565395355, 0.25800782442092896, 0.31684571504592896, 0.3238281309604645, 0.2840820252895355, 0.310546875, 0.29121094942092896, 0.2906250059604645, 0.2784667909145355, 0.2557128965854645, 0.28852540254592896, 0.32026368379592896, 0.2830566465854645, 0.31499025225639343, 0.2754882872104645, 0.32158204913139343, 0.2960449159145355, 0.30341798067092896, 0.2972168028354645, 0.33330079913139343, 0.27045899629592896, 0.25737306475639343, 0.269775390625, 0.22475586831569672, 0.28901368379592896, 0.2860351502895355, 0.3482910096645355, 0.2853027284145355, 0.36225587129592896, 0.27460938692092896, 0.3475585877895355, 0.2984863221645355, 0.3365234434604645, 0.25932618975639343, 0.28251954913139343, 0.3463378846645355, 0.3089355528354645, 0.25068360567092896, 0.27241212129592896, 0.3118652403354645, 0.29204103350639343, 0.3165039122104645, 0.3070312440395355, 0.29169923067092896, 0.31401368975639343, 0.35029298067092896, 0.31254884600639343, 0.28520509600639343, 0.31904298067092896, 0.2784179747104645, 0.2867187559604645, 0.308349609375, 0.29731446504592896, 0.23784179985523224, 0.31499025225639343, 0.23989258706569672, 0.3182617127895355, 0.24931640923023224, 0.197265625, 0.3268066346645355, 0.32001954317092896, 0.20937500894069672, 0.26362305879592896, 0.2687011659145355, 0.3738769590854645, 0.30903321504592896, 0.318115234375, 0.30986329913139343, 0.3025878965854645, 0.2977539002895355, 0.305908203125, 0.29350587725639343, 0.29326173663139343, 0.26972657442092896, 0.2691406309604645, 0.2786621153354645, 0.24956054985523224, 0.251953125, 0.31005859375, 0.2796874940395355, 0.23784179985523224, 0.23930664360523224, 0.33110353350639343, 0.22915039956569672, 0.3030761778354645, 0.2813476622104645, 0.30400392413139343, 0.3267578184604645, 0.34575197100639343, 0.30424806475639343, 0.3565917909145355, 0.260009765625, 0.293212890625, 0.33295899629592896, 0.304931640625, 0.22866211831569672, 0.30195313692092896, 0.2896972596645355, 0.27783203125, 0.33149415254592896, 0.29389649629592896, 0.298095703125, 0.3135742247104645, 0.34355470538139343, 0.3268066346645355, 0.30517578125, 0.32568359375, 0.2901855409145355, 0.32011720538139343, 0.3349609375, 0.3064941465854645, 0.27006837725639343, 0.29570314288139343, 0.27778321504592896, 0.2642578184604645, 0.31547853350639343, 0.29887697100639343, 0.30561524629592896, 0.27880859375, 0.3328613340854645, 0.25371095538139343, 0.2874999940395355, 0.26557618379592896, 0.32080078125, 0.318359375, 0.232666015625, 0.272705078125, 0.37397462129592896, 0.28535157442092896, 0.2638183534145355, 0.3407226502895355, 0.226318359375, 0.32666015625, 0.3048339784145355, 0.32758790254592896, 0.3804687559604645, 0.27973634004592896, 0.30791017413139343, 0.2881835997104645, 0.28715822100639343, 0.33076173067092896, 0.303955078125, 0.3304687440395355, 0.33452150225639343, 0.3104003965854645, 0.33476564288139343, 0.4146484434604645]","[10.9375, 9.125, 9.3125, 9.5625, 9.4375, 9.375, 9.3125, 9.5625, 9.5, 9.5, 9.4375, 9.3125, 9.5625, 9.75, 9.5625, 9.8125, 9.5625, 9.5, 10.0, 10.125, 9.4375, 9.5625, 9.6875, 9.3125, 9.4375, 9.8125, 9.75, 9.6875, 9.5625, 9.625, 9.6875, 9.5, 9.625, 9.625, 9.5625, 9.6875, 9.625, 9.6875, 9.6875, 9.875, 10.125, 9.9375, 9.9375, 9.9375, 9.9375, 9.75, 9.625, 9.625, 9.6875, 9.6875, 9.625, 9.75, 9.625, 9.6875, 9.6875, 9.8125, 9.625, 9.625, 9.75, 9.625, 9.9375, 9.875, 9.8125, 9.8125, 9.8125, 9.6875, 9.8125, 9.75, 9.625, 9.6875, 9.8125, 9.75, 9.8125, 9.8125, 10.125, 9.875, 9.9375, 9.9375, 9.75, 9.875, 10.0, 10.0625, 10.125, 9.9375, 10.0625, 10.0625, 9.875, 9.75, 9.75, 10.0625, 10.0625, 9.75, 10.0625, 9.875, 10.3125, 10.0625, 10.3125, 10.0625, 10.0625, 10.1875, 10.1875, 10.5, 10.3125, 10.625, 10.25, 10.375, 10.625, 10.25, 10.4375, 10.375, 10.1875, 10.25, 10.1875, 10.0, 10.0, 10.25, 10.5, 10.25, 10.0, 10.3125, 10.1875, 9.9375, 10.25, 10.6875, 10.5, 10.8125, 10.125, 10.4375, 10.625, 10.9375, 11.0625, 11.1875, 10.875, 11.125, 11.125, 10.6875, 10.8125, 10.0625, 10.125, 10.125, 10.4375, 10.375, 10.4375, 10.3125, 10.125, 10.25, 10.1875, 10.6875, 10.625, 10.5, 10.125, 10.375, 10.4375, 10.5, 10.375, 10.6875, 10.4375, 10.75, 10.875, 10.5625, 10.625, 10.9375, 10.375, 9.9375, 10.3125, 10.5, 10.5625, 10.25, 10.5, 10.625, 10.0, 10.375, 10.3125, 10.25, 10.1875, 10.1875, 10.375, 10.25, 10.0625, 10.1875, 10.0625, 10.5, 10.5, 10.3125, 10.25, 10.0625, 10.3125, 10.125, 10.4375, 10.4375, 10.4375, 10.4375, 10.375, 10.75, 10.5625, 10.1875, 9.875, 10.25, 10.4375, 10.375, 10.375, 10.3125, 10.6875, 10.5625, 10.3125, 10.125, 10.1875, 10.3125, 10.375, 10.375, 10.125, 10.3125, 10.25, 10.125, 10.1875, 10.3125, 10.625, 10.5, 10.5625, 11.3125, 10.875, 10.625, 10.1875, 10.1875, 10.1875, 10.3125, 10.0, 10.0, 10.0625, 9.9375, 10.125, 10.3125, 10.3125, 10.3125, 10.25, 10.4375, 10.5, 10.1875, 10.3125, 10.1875, 10.1875, 10.375, 10.25, 10.125, 10.3125, 10.1875, 10.3125, 10.3125, 10.375, 10.1875, 10.1875, 10.125, 10.25, 10.1875, 10.3125, 10.1875, 10.4375, 10.0625, 10.0, 10.25, 10.125, 10.1875, 10.0, 10.0625, 10.0, 10.3125, 10.0625, 10.0625, 10.3125, 10.0625, 10.6875, 10.0625, 9.9375, 10.1875, 10.1875, 10.125, 10.1875, 10.0625, 10.0625, 10.375, 10.375, 10.375, 10.5625, 10.4375, 9.9375, 10.1875, 10.0625, 10.125, 10.3125, 10.5625, 10.4375, 10.0625, 10.375, 10.5625, 10.5625, 10.5625, 10.5625, 10.375, 10.5, 10.625, 10.5625, 10.4375, 10.3125, 10.375, 10.1875, 10.375, 10.25, 10.0625, 10.3125, 10.1875, 10.3125, 10.375, 10.375, 10.375, 10.375, 10.4375, 10.5, 10.375, 10.1875, 10.4375, 10.3125, 10.4375, 10.5, 10.375, 10.125, 10.3125, 10.5, 10.375, 10.25, 10.5, 10.375, 10.25, 10.375, 10.5, 10.75, 10.4375, 10.625, 10.5625, 10.375, 10.0625, 10.625, 10.75, 10.5, 10.5625, 10.3125, 10.25, 10.375, 10.625, 10.3125, 10.625, 10.8125, 10.75, 10.5625, 10.4375, 10.8125, 10.625, 10.375, 10.5625, 10.375, 10.8125, 10.625, 10.5, 10.75, 10.4375, 11.0625, 10.875, 10.5, 10.625, 10.875, 10.6875, 11.0625, 10.6875, 11.1875, 11.1875, 10.75, 10.75, 10.6875, 10.6875, 10.75, 10.9375, 10.75, 10.6875, 10.75, 10.9375, 10.875, 10.625, 10.5625, 10.375, 10.1875, 10.5625, 10.4375, 10.5625, 10.3125, 10.875, 10.625, 10.75, 10.8125, 11.1875, 11.0, 10.9375, 10.4375, 10.5625, 10.4375, 10.5, 10.375, 10.6875, 10.75, 10.4375, 10.9375, 10.75, 11.0625, 11.0625, 10.4375, 11.0, 10.75, 10.5625, 10.4375, 10.3125, 10.375, 10.5, 10.4375, 10.4375, 11.125, 12.625, 11.75, 11.0, 11.0625, 11.0, 10.8125, 10.6875, 11.4375, 11.0625, 11.1875, 11.4375, 10.8125, 11.0625, 10.9375, 11.125, 11.0, 10.9375, 10.9375, 10.5, 10.5625, 10.75, 10.9375, 10.6875, 10.8125, 11.0625, 10.375, 10.8125, 11.0625, 10.3125, 10.625, 10.5, 10.75, 10.9375, 10.75, 11.0, 10.8125, 11.0, 10.875, 10.9375, 11.0625, 11.375, 11.3125, 11.25, 10.9375, 10.75, 10.375, 10.9375, 10.5625, 10.6875, 10.75, 10.8125, 10.8125, 11.0, 10.875, 10.875, 10.625, 11.0, 10.9375, 11.3125, 10.9375, 11.0, 10.9375, 11.0, 10.9375, 11.1875, 11.125, 12.0, 11.8125, 11.3125, 11.375, 11.3125, 11.125, 11.1875, 11.0, 11.125, 10.875, 11.25, 11.375, 11.25, 10.75, 11.0, 11.125, 11.1875, 10.8125, 10.5, 10.625, 10.8125, 11.1875, 10.9375, 11.0625, 10.875, 10.6875, 10.6875, 11.125, 10.8125, 11.1875, 11.0, 10.5625, 10.75, 10.8125, 11.0625, 10.875, 11.0625, 11.25, 11.0625, 11.0, 10.9375, 11.125, 11.375, 11.0, 11.0, 10.75, 11.0, 11.25, 11.25, 11.375, 11.5, 10.9375, 10.8125, 10.5, 10.9375, 10.5625, 11.4375, 11.1875, 11.4375, 11.375, 11.4375, 11.25, 11.25, 10.9375, 10.9375, 11.3125, 11.0, 11.0625, 11.0625, 11.25, 11.5, 10.9375, 10.875, 10.6875, 10.9375, 10.9375, 10.375, 10.25, 10.8125, 10.875, 10.375, 11.0, 10.9375, 10.9375, 10.625, 10.5625, 10.625, 10.4375, 10.625, 10.625, 10.3125, 10.5, 10.75, 10.9375, 10.8125, 10.6875, 10.4375, 10.875, 10.4375, 10.625, 10.4375, 10.5625, 10.6875, 10.9375, 10.6875, 11.0625, 10.9375, 10.8125, 10.8125, 11.0625, 11.25, 11.125, 11.25, 11.3125, 10.75, 11.25, 11.125, 11.0, 11.125, 11.3125, 10.875, 10.6875, 10.9375, 11.3125, 10.875, 10.8125, 10.9375, 10.125, 10.8125, 10.625, 11.25, 11.125, 11.375, 11.125, 11.0, 10.75, 10.8125, 11.75, 11.4375, 11.375, 10.9375, 11.375, 11.125, 11.0625, 11.3125, 11.125, 11.0, 10.9375, 11.4375, 10.9375, 11.375, 11.1875, 11.0625, 11.375, 11.5, 10.875, 10.9375, 11.0625, 10.875, 11.25, 12.0, 11.6875, 11.4375, 11.1875, 11.375, 11.875, 11.8125, 11.1875, 11.9375, 11.5, 10.875, 11.125, 11.6875, 11.9375, 11.3125, 10.8125, 11.1875, 10.8125, 10.6875, 10.9375, 10.8125, 11.125, 10.9375, 12.125, 12.0, 12.3125, 13.125, 11.6875, 11.1875, 11.9375, 11.625, 11.625, 11.4375, 11.375, 11.4375, 11.0625, 11.5, 11.125, 10.9375, 11.0625, 11.125, 11.25, 11.75, 12.125, 11.5, 10.6875, 11.5625, 11.5, 11.75, 11.625, 11.125, 11.125, 11.5, 11.4375, 11.375, 11.4375, 11.0, 11.125, 11.0, 10.8125, 10.75, 10.875, 11.125, 10.8125, 10.75, 11.0, 11.0, 10.8125, 10.75, 10.5625, 11.4375, 12.0625, 12.0625, 11.4375, 11.75, 11.3125, 11.5625, 11.5625, 11.375, 11.0, 11.5, 11.1875, 11.5, 11.9375, 12.125, 11.75, 11.5625, 11.875, 11.75, 12.125, 11.9375, 11.125, 11.625, 11.6875, 11.6875, 11.375, 11.1875, 11.3125, 11.0625, 11.1875, 11.1875, 11.8125, 11.625, 11.6875, 11.3125, 10.875, 10.9375, 11.375, 11.6875, 11.1875, 11.25, 11.0625, 11.4375, 11.1875, 11.0625, 11.6875, 11.625, 11.375, 11.375, 11.5, 10.875, 10.875, 10.6875, 11.0625, 11.125, 11.1875, 10.8125, 10.9375, 11.3125, 10.6875, 11.3125, 11.3125, 11.5, 11.6875, 11.375, 10.9375, 10.875, 11.0625, 10.8125, 10.875, 11.25, 12.5, 12.5, 11.5625, 12.5625, 11.4375, 11.4375, 11.875, 11.8125, 11.875, 11.75, 11.9375, 11.8125, 12.125, 12.0, 11.4375, 12.0625, 12.4375, 12.25, 12.5625, 11.5, 11.8125, 12.6875, 11.875, 12.1875, 12.3125, 11.8125, 11.125, 11.6875, 11.75, 11.875, 11.8125, 11.8125, 11.375, 11.875, 12.0, 11.0625, 11.75, 12.0625, 11.5625, 11.3125, 11.4375, 12.25, 11.8125, 11.4375, 11.375, 11.0625, 11.0, 11.3125, 11.5, 11.5, 11.5, 11.0, 11.9375, 11.5625, 11.5625, 11.25, 12.1875, 11.75, 11.3125, 11.0625, 11.0, 12.125, 11.9375, 11.5, 11.375, 11.75, 11.875, 12.125, 12.0, 12.375, 12.625, 12.8125, 11.9375, 11.3125, 11.875, 11.4375, 11.8125, 11.3125, 11.375, 11.0625, 12.3125, 11.5, 11.0625, 11.1875, 11.75, 11.4375, 10.9375, 11.3125, 11.875, 12.0, 11.625, 10.75, 11.375, 11.4375, 12.0625, 11.5, 11.125, 11.25, 11.6875, 11.375, 11.5, 12.9375, 13.0, 13.0, 12.1875, 12.3125, 12.9375, 10.875, 10.8125, 10.75, 11.0, 10.5, 10.625, 10.4375, 10.875, 10.9375, 10.5625, 10.9375, 10.5, 10.5, 10.6875, 10.6875, 10.6875, 10.5, 10.6875, 10.625, 10.9375, 10.875, 11.0625, 10.9375, 10.875, 10.5625, 10.625, 10.875, 10.9375, 10.6875, 10.875, 10.875, 11.0625, 11.1875, 11.625, 11.9375, 11.875, 11.3125, 10.6875, 11.125, 11.0, 11.375, 11.25, 10.625, 10.9375, 11.3125, 11.0625, 11.0625, 11.4375, 11.0625, 11.5625, 11.0, 10.8125, 11.0625, 11.1875, 10.9375, 11.4375, 11.0625, 11.3125, 11.125, 10.9375, 11.3125, 11.1875, 11.3125, 11.1875, 10.875, 11.3125, 10.8125, 10.75, 11.25, 11.1875, 11.0, 10.5625, 10.8125, 10.8125, 11.0, 10.75, 10.9375, 10.625, 11.3125, 11.5, 11.125, 11.5, 11.0, 11.25, 11.375, 11.3125, 11.375, 11.5, 11.1875, 11.5, 11.625, 11.0625, 12.375, 13.625, 12.1875, 11.9375, 12.25, 12.25, 11.9375, 12.375, 12.5, 12.0, 12.375, 11.875, 12.375, 13.0, 12.0, 11.75, 11.0, 11.125, 11.875, 11.8125, 11.3125, 11.4375, 12.25, 11.75, 12.1875, 11.8125, 12.0, 11.8125, 11.75, 12.0, 11.5, 11.5625, 12.375, 12.4375, 11.9375, 11.875, 12.4375, 12.0625, 11.6875, 11.8125, 11.6875, 11.9375, 11.75, 11.5, 11.6875, 13.3125, 12.125, 12.625, 12.3125, 12.5625, 12.5625, 12.875, 13.25, 12.625, 12.3125, 12.125, 12.3125, 13.0625, 11.9375, 12.0625, 12.625, 12.3125, 12.3125, 11.875, 12.375, 12.25, 12.4375, 11.9375, 12.125, 11.8125, 12.25, 12.25, 12.125, 11.9375, 11.6875, 11.75, 11.875, 11.75, 12.0, 11.625, 12.1875, 10.8125, 11.5, 12.0625, 11.375, 12.75, 12.25, 12.0, 11.5, 11.8125, 12.1875, 12.125, 12.125, 12.0625, 11.6875, 12.0625, 11.5, 11.4375, 12.0625, 12.75, 11.5625, 12.5, 12.0, 12.3125, 11.0, 12.125, 12.1875, 11.6875, 12.1875, 11.25, 11.6875, 11.375, 11.3125, 12.0, 11.1875, 11.5, 11.75, 11.625, 11.6875, 12.125, 11.375, 11.875, 11.5625, 12.25, 12.3125, 11.75, 12.0625, 12.0, 11.5625, 11.3125, 11.25, 11.8125, 12.0625, 12.3125, 10.875, 12.375, 11.625, 12.0625, 11.75, 11.9375, 11.6875, 11.9375, 11.75, 12.0625, 11.1875, 11.75, 11.3125, 11.5, 11.875, 11.1875, 12.1875, 11.5625, 12.0625, 12.0, 12.0, 12.1875, 12.0, 11.5625, 11.375, 11.5, 11.6875, 11.5, 12.0, 11.625, 11.0625, 11.375, 11.9375, 11.875, 11.375, 11.6875, 11.3125, 11.125, 11.8125, 11.3125, 12.1875, 11.1875, 12.0625, 11.875, 11.6875, 12.0, 11.5625, 11.3125, 11.8125, 11.5625, 11.3125, 11.375, 11.75, 11.1875, 11.375, 11.8125, 11.6875, 11.125, 11.6875, 11.125, 11.0625, 11.375, 11.625, 11.3125, 10.75, 10.9375, 10.9375, 11.4375, 11.0, 11.25, 11.4375, 10.875, 11.625, 11.4375, 11.5, 11.4375, 11.875, 11.375, 11.9375, 11.9375, 12.0, 12.0, 11.375, 11.4375, 11.9375, 11.375, 11.625, 12.1875, 12.375, 11.625, 11.5, 12.375, 11.5, 11.25, 11.0625, 11.125, 11.1875, 11.5, 11.625, 11.1875, 11.0625, 11.375, 11.125, 11.4375, 11.75, 11.625, 11.4375, 11.875, 12.375, 11.375, 11.625, 11.75, 11.3125, 11.1875, 11.5, 11.1875, 11.5, 11.1875, 11.6875, 11.8125, 12.125, 11.3125, 11.75, 11.875, 12.0625, 11.8125, 11.625, 11.4375, 11.6875, 12.0625, 11.375, 11.5, 11.4375, 11.9375, 11.5625, 12.25, 11.6875, 11.5, 11.9375, 11.3125, 11.125, 11.125, 11.4375, 11.0625, 11.4375, 11.6875, 11.1875, 11.9375, 12.3125, 11.75, 11.8125, 12.3125, 11.9375, 11.625, 11.5, 12.0, 11.4375, 11.5625, 11.5625, 11.5, 11.625, 11.6875, 11.75, 11.875, 11.4375, 10.8125, 11.75, 12.1875, 12.1875, 12.5625, 11.8125, 11.25, 12.0625, 12.125, 11.875, 12.0, 11.6875, 11.75, 11.9375, 10.3125, 10.75, 10.9375, 10.5, 10.6875, 10.625, 10.8125, 10.875, 10.5, 10.25, 9.9375, 9.9375, 10.3125, 10.5625, 10.875, 10.5625, 10.4375, 10.4375, 10.4375, 10.625, 10.5625, 10.625, 10.875, 10.5, 10.6875, 10.5, 10.3125, 10.5625, 9.375, 10.0, 9.375, 11.8125, 11.5625, 11.4375, 11.1875, 11.8125, 11.5625, 11.5625, 11.875, 11.8125, 11.8125, 11.875, 12.0, 12.4375, 12.4375, 11.9375, 11.75, 11.875, 11.6875, 10.75, 10.8125, 11.0625, 10.6875, 11.3125, 12.0, 12.3125, 12.0, 12.25, 12.4375, 12.5, 11.625, 11.75, 12.125, 11.4375, 12.375, 11.5625, 12.0625, 11.6875, 11.4375, 11.6875, 11.6875, 11.6875, 11.0, 11.6875, 12.0625, 11.8125, 11.1875, 11.0, 11.75, 11.375, 11.5625, 11.1875, 11.875, 11.5625, 11.375, 11.5625, 11.375, 11.4375, 11.125, 11.625, 11.75, 11.25, 11.5, 10.9375, 11.8125, 11.8125, 11.6875, 11.4375, 10.6875, 12.0, 11.125, 11.375, 11.4375, 11.5, 11.4375, 11.75, 11.125, 11.0625, 11.625, 11.75, 11.25, 11.375, 11.875, 12.5625, 12.125, 11.75, 12.0625, 11.25, 11.6875, 11.625, 11.5, 11.8125, 11.3125, 11.6875, 11.625, 12.125, 13.0625, 12.75, 12.5, 12.6875, 12.4375, 13.25, 12.875, 12.0625, 12.875, 12.4375, 12.5, 12.5, 12.1875, 12.0625, 12.0625, 12.0, 12.375, 12.0, 12.0625, 12.5, 11.9375, 12.25, 12.3125, 12.375, 11.8125, 12.5, 12.375, 12.0, 12.4375, 11.5, 12.5, 12.125, 12.3125, 11.0, 11.25, 10.875, 10.875, 10.625, 11.0, 11.0, 11.0625, 11.0, 11.1875, 11.1875, 10.8125, 10.9375, 11.125, 11.25, 11.125, 11.125, 11.1875, 11.0, 11.125, 11.125, 11.3125, 11.0, 10.875, 11.1875, 10.75, 10.75, 11.25, 10.8125, 11.0625, 11.0, 10.8125, 11.125, 11.0, 10.875, 11.125, 11.1875, 11.25, 11.1875, 11.125, 11.125, 11.375, 11.5, 11.125, 11.375, 12.3125, 11.9375, 11.625, 11.8125, 12.0, 11.6875, 11.9375, 12.125, 11.3125, 11.4375, 11.6875, 11.4375, 11.5625, 11.6875, 11.625, 11.4375, 11.625, 11.375, 11.625, 11.375, 11.625, 11.9375, 11.5, 11.625, 12.125, 11.5625, 11.75, 11.6875, 11.875, 11.625, 11.75, 11.9375, 12.1875, 11.75, 11.5625, 11.375, 11.75, 11.875, 11.6875, 11.625, 11.75, 11.5625, 11.5625, 11.5, 11.6875, 11.5, 11.5, 11.8125, 11.6875, 11.625, 11.375, 11.9375, 11.6875, 11.25, 11.75, 12.25, 11.875, 11.5625, 11.9375, 11.5, 11.875, 11.5625, 11.8125, 11.8125, 11.75, 11.6875, 11.3125, 11.3125, 11.625, 11.75, 11.5, 11.75, 11.6875, 11.8125, 12.0]","[56320.0, 9216.0, 11072.0, 14272.0, 12544.0, 11840.0, 11072.0, 14272.0, 13376.0, 13376.0, 12544.0, 11072.0, 14272.0, 17152.0, 14272.0, 18304.0, 14272.0, 13376.0, 22016.0, 24960.0, 12544.0, 14272.0, 16128.0, 11072.0, 12544.0, 18304.0, 17152.0, 16128.0, 14272.0, 15168.0, 16128.0, 13376.0, 15168.0, 15168.0, 14272.0, 16128.0, 15168.0, 16128.0, 16128.0, 19456.0, 24960.0, 20736.0, 20736.0, 20736.0, 20736.0, 17152.0, 15168.0, 15168.0, 16128.0, 16128.0, 15168.0, 17152.0, 15168.0, 16128.0, 16128.0, 18304.0, 15168.0, 15168.0, 17152.0, 15168.0, 20736.0, 19456.0, 18304.0, 18304.0, 18304.0, 16128.0, 18304.0, 17152.0, 15168.0, 16128.0, 18304.0, 17152.0, 18304.0, 18304.0, 24960.0, 19456.0, 20736.0, 20736.0, 17152.0, 19456.0, 22016.0, 23424.0, 24960.0, 20736.0, 23424.0, 23424.0, 19456.0, 17152.0, 17152.0, 23424.0, 23424.0, 17152.0, 23424.0, 19456.0, 30208.0, 23424.0, 30208.0, 23424.0, 23424.0, 26624.0, 26624.0, 36352.0, 30208.0, 41216.0, 28288.0, 32128.0, 41216.0, 28288.0, 34304.0, 32128.0, 26624.0, 28288.0, 26624.0, 22016.0, 22016.0, 28288.0, 36352.0, 28288.0, 22016.0, 30208.0, 26624.0, 20736.0, 28288.0, 43776.0, 36352.0, 49664.0, 24960.0, 34304.0, 41216.0, 56320.0, 63744.0, 72192.0, 52992.0, 68096.0, 68096.0, 43776.0, 49664.0, 23424.0, 24960.0, 24960.0, 34304.0, 32128.0, 34304.0, 30208.0, 24960.0, 28288.0, 26624.0, 43776.0, 41216.0, 36352.0, 24960.0, 32128.0, 34304.0, 36352.0, 32128.0, 43776.0, 34304.0, 46592.0, 52992.0, 38656.0, 41216.0, 56320.0, 32128.0, 20736.0, 30208.0, 36352.0, 38656.0, 28288.0, 36352.0, 41216.0, 22016.0, 32128.0, 30208.0, 28288.0, 26624.0, 26624.0, 32128.0, 28288.0, 23424.0, 26624.0, 23424.0, 36352.0, 36352.0, 30208.0, 28288.0, 23424.0, 30208.0, 24960.0, 34304.0, 34304.0, 34304.0, 34304.0, 32128.0, 46592.0, 38656.0, 26624.0, 19456.0, 28288.0, 34304.0, 32128.0, 32128.0, 30208.0, 43776.0, 38656.0, 30208.0, 24960.0, 26624.0, 30208.0, 32128.0, 32128.0, 24960.0, 30208.0, 28288.0, 24960.0, 26624.0, 30208.0, 41216.0, 36352.0, 38656.0, 81920.0, 52992.0, 41216.0, 26624.0, 26624.0, 26624.0, 30208.0, 22016.0, 22016.0, 23424.0, 20736.0, 24960.0, 30208.0, 30208.0, 30208.0, 28288.0, 34304.0, 36352.0, 26624.0, 30208.0, 26624.0, 26624.0, 32128.0, 28288.0, 24960.0, 30208.0, 26624.0, 30208.0, 30208.0, 32128.0, 26624.0, 26624.0, 24960.0, 28288.0, 26624.0, 30208.0, 26624.0, 34304.0, 23424.0, 22016.0, 28288.0, 24960.0, 26624.0, 22016.0, 23424.0, 22016.0, 30208.0, 23424.0, 23424.0, 30208.0, 23424.0, 43776.0, 23424.0, 20736.0, 26624.0, 26624.0, 24960.0, 26624.0, 23424.0, 23424.0, 32128.0, 32128.0, 32128.0, 38656.0, 34304.0, 20736.0, 26624.0, 23424.0, 24960.0, 30208.0, 38656.0, 34304.0, 23424.0, 32128.0, 38656.0, 38656.0, 38656.0, 38656.0, 32128.0, 36352.0, 41216.0, 38656.0, 34304.0, 30208.0, 32128.0, 26624.0, 32128.0, 28288.0, 23424.0, 30208.0, 26624.0, 30208.0, 32128.0, 32128.0, 32128.0, 32128.0, 34304.0, 36352.0, 32128.0, 26624.0, 34304.0, 30208.0, 34304.0, 36352.0, 32128.0, 24960.0, 30208.0, 36352.0, 32128.0, 28288.0, 36352.0, 32128.0, 28288.0, 32128.0, 36352.0, 46592.0, 34304.0, 41216.0, 38656.0, 32128.0, 23424.0, 41216.0, 46592.0, 36352.0, 38656.0, 30208.0, 28288.0, 32128.0, 41216.0, 30208.0, 41216.0, 49664.0, 46592.0, 38656.0, 34304.0, 49664.0, 41216.0, 32128.0, 38656.0, 32128.0, 49664.0, 41216.0, 36352.0, 46592.0, 34304.0, 63744.0, 52992.0, 36352.0, 41216.0, 52992.0, 43776.0, 63744.0, 43776.0, 72192.0, 72192.0, 46592.0, 46592.0, 43776.0, 43776.0, 46592.0, 56320.0, 46592.0, 43776.0, 46592.0, 56320.0, 52992.0, 41216.0, 38656.0, 32128.0, 26624.0, 38656.0, 34304.0, 38656.0, 30208.0, 52992.0, 41216.0, 46592.0, 49664.0, 72192.0, 59904.0, 56320.0, 34304.0, 38656.0, 34304.0, 36352.0, 32128.0, 43776.0, 46592.0, 34304.0, 56320.0, 46592.0, 63744.0, 63744.0, 34304.0, 59904.0, 46592.0, 38656.0, 34304.0, 30208.0, 32128.0, 36352.0, 34304.0, 34304.0, 68096.0, 305152.0, 126976.0, 59904.0, 63744.0, 59904.0, 49664.0, 43776.0, 92672.0, 63744.0, 72192.0, 92672.0, 49664.0, 63744.0, 56320.0, 68096.0, 59904.0, 56320.0, 56320.0, 36352.0, 38656.0, 46592.0, 56320.0, 43776.0, 49664.0, 63744.0, 32128.0, 49664.0, 63744.0, 30208.0, 41216.0, 36352.0, 46592.0, 56320.0, 46592.0, 59904.0, 49664.0, 59904.0, 52992.0, 56320.0, 63744.0, 87040.0, 81920.0, 76800.0, 56320.0, 46592.0, 32128.0, 56320.0, 38656.0, 43776.0, 46592.0, 49664.0, 49664.0, 59904.0, 52992.0, 52992.0, 41216.0, 59904.0, 56320.0, 81920.0, 56320.0, 59904.0, 56320.0, 59904.0, 56320.0, 72192.0, 68096.0, 162816.0, 135168.0, 81920.0, 87040.0, 81920.0, 68096.0, 72192.0, 59904.0, 68096.0, 52992.0, 76800.0, 87040.0, 76800.0, 46592.0, 59904.0, 68096.0, 72192.0, 49664.0, 36352.0, 41216.0, 49664.0, 72192.0, 56320.0, 63744.0, 52992.0, 43776.0, 43776.0, 68096.0, 49664.0, 72192.0, 59904.0, 38656.0, 46592.0, 49664.0, 63744.0, 52992.0, 63744.0, 76800.0, 63744.0, 59904.0, 56320.0, 68096.0, 87040.0, 59904.0, 59904.0, 46592.0, 59904.0, 76800.0, 76800.0, 87040.0, 98816.0, 56320.0, 49664.0, 36352.0, 56320.0, 38656.0, 92672.0, 72192.0, 92672.0, 87040.0, 92672.0, 76800.0, 76800.0, 56320.0, 56320.0, 81920.0, 59904.0, 63744.0, 63744.0, 76800.0, 98816.0, 56320.0, 52992.0, 43776.0, 56320.0, 56320.0, 32128.0, 28288.0, 49664.0, 52992.0, 32128.0, 59904.0, 56320.0, 56320.0, 41216.0, 38656.0, 41216.0, 34304.0, 41216.0, 41216.0, 30208.0, 36352.0, 46592.0, 56320.0, 49664.0, 43776.0, 34304.0, 52992.0, 34304.0, 41216.0, 34304.0, 38656.0, 43776.0, 56320.0, 43776.0, 63744.0, 56320.0, 49664.0, 49664.0, 63744.0, 76800.0, 68096.0, 76800.0, 81920.0, 46592.0, 76800.0, 68096.0, 59904.0, 68096.0, 81920.0, 52992.0, 43776.0, 56320.0, 81920.0, 52992.0, 49664.0, 56320.0, 24960.0, 49664.0, 41216.0, 76800.0, 68096.0, 87040.0, 68096.0, 59904.0, 46592.0, 49664.0, 126976.0, 92672.0, 87040.0, 56320.0, 87040.0, 68096.0, 63744.0, 81920.0, 68096.0, 59904.0, 56320.0, 92672.0, 56320.0, 87040.0, 72192.0, 63744.0, 87040.0, 98816.0, 52992.0, 56320.0, 63744.0, 52992.0, 76800.0, 162816.0, 119296.0, 92672.0, 72192.0, 87040.0, 144384.0, 135168.0, 72192.0, 153600.0, 98816.0, 52992.0, 68096.0, 119296.0, 153600.0, 81920.0, 49664.0, 72192.0, 49664.0, 43776.0, 56320.0, 49664.0, 68096.0, 56320.0, 184320.0, 162816.0, 223232.0, 501760.0, 119296.0, 72192.0, 153600.0, 112128.0, 112128.0, 92672.0, 87040.0, 92672.0, 63744.0, 98816.0, 68096.0, 56320.0, 63744.0, 68096.0, 76800.0, 126976.0, 184320.0, 98816.0, 43776.0, 105472.0, 98816.0, 126976.0, 112128.0, 68096.0, 68096.0, 98816.0, 92672.0, 87040.0, 92672.0, 59904.0, 68096.0, 59904.0, 49664.0, 46592.0, 52992.0, 68096.0, 49664.0, 46592.0, 59904.0, 59904.0, 49664.0, 46592.0, 38656.0, 92672.0, 174080.0, 174080.0, 92672.0, 126976.0, 81920.0, 105472.0, 105472.0, 87040.0, 59904.0, 98816.0, 72192.0, 98816.0, 153600.0, 184320.0, 126976.0, 105472.0, 144384.0, 126976.0, 184320.0, 153600.0, 68096.0, 112128.0, 119296.0, 119296.0, 87040.0, 72192.0, 81920.0, 63744.0, 72192.0, 72192.0, 135168.0, 112128.0, 119296.0, 81920.0, 52992.0, 56320.0, 87040.0, 119296.0, 72192.0, 76800.0, 63744.0, 92672.0, 72192.0, 63744.0, 119296.0, 112128.0, 87040.0, 87040.0, 98816.0, 52992.0, 52992.0, 43776.0, 63744.0, 68096.0, 72192.0, 49664.0, 56320.0, 81920.0, 43776.0, 81920.0, 81920.0, 98816.0, 119296.0, 87040.0, 56320.0, 52992.0, 63744.0, 49664.0, 52992.0, 76800.0, 268288.0, 268288.0, 105472.0, 286720.0, 92672.0, 92672.0, 144384.0, 135168.0, 144384.0, 126976.0, 153600.0, 135168.0, 184320.0, 162816.0, 92672.0, 174080.0, 252928.0, 209920.0, 286720.0, 98816.0, 135168.0, 323584.0, 144384.0, 196608.0, 223232.0, 135168.0, 68096.0, 119296.0, 126976.0, 144384.0, 135168.0, 135168.0, 87040.0, 144384.0, 162816.0, 63744.0, 126976.0, 174080.0, 105472.0, 81920.0, 92672.0, 209920.0, 135168.0, 92672.0, 87040.0, 63744.0, 59904.0, 81920.0, 98816.0, 98816.0, 98816.0, 59904.0, 153600.0, 105472.0, 105472.0, 76800.0, 196608.0, 126976.0, 81920.0, 63744.0, 59904.0, 184320.0, 153600.0, 98816.0, 87040.0, 126976.0, 144384.0, 184320.0, 162816.0, 237568.0, 305152.0, 366592.0, 153600.0, 81920.0, 144384.0, 92672.0, 135168.0, 81920.0, 87040.0, 63744.0, 223232.0, 98816.0, 63744.0, 72192.0, 126976.0, 92672.0, 56320.0, 81920.0, 144384.0, 162816.0, 112128.0, 46592.0, 87040.0, 92672.0, 174080.0, 98816.0, 68096.0, 76800.0, 119296.0, 87040.0, 98816.0, 415744.0, 444416.0, 444416.0, 196608.0, 223232.0, 415744.0, 52992.0, 49664.0, 46592.0, 59904.0, 36352.0, 41216.0, 34304.0, 52992.0, 56320.0, 38656.0, 56320.0, 36352.0, 36352.0, 43776.0, 43776.0, 43776.0, 36352.0, 43776.0, 41216.0, 56320.0, 52992.0, 63744.0, 56320.0, 52992.0, 38656.0, 41216.0, 52992.0, 56320.0, 43776.0, 52992.0, 52992.0, 63744.0, 72192.0, 112128.0, 153600.0, 144384.0, 81920.0, 43776.0, 68096.0, 59904.0, 87040.0, 76800.0, 41216.0, 56320.0, 81920.0, 63744.0, 63744.0, 92672.0, 63744.0, 105472.0, 59904.0, 49664.0, 63744.0, 72192.0, 56320.0, 92672.0, 63744.0, 81920.0, 68096.0, 56320.0, 81920.0, 72192.0, 81920.0, 72192.0, 52992.0, 81920.0, 49664.0, 46592.0, 76800.0, 72192.0, 59904.0, 38656.0, 49664.0, 49664.0, 59904.0, 46592.0, 56320.0, 41216.0, 81920.0, 98816.0, 68096.0, 98816.0, 59904.0, 76800.0, 87040.0, 81920.0, 87040.0, 98816.0, 72192.0, 98816.0, 112128.0, 63744.0, 237568.0, 827392.0, 196608.0, 153600.0, 209920.0, 209920.0, 153600.0, 237568.0, 268288.0, 162816.0, 237568.0, 144384.0, 237568.0, 444416.0, 162816.0, 126976.0, 59904.0, 68096.0, 144384.0, 135168.0, 81920.0, 92672.0, 209920.0, 126976.0, 196608.0, 135168.0, 162816.0, 135168.0, 126976.0, 162816.0, 98816.0, 105472.0, 237568.0, 252928.0, 153600.0, 144384.0, 252928.0, 174080.0, 119296.0, 135168.0, 119296.0, 153600.0, 126976.0, 98816.0, 119296.0, 606208.0, 184320.0, 305152.0, 223232.0, 286720.0, 286720.0, 391168.0, 569344.0, 305152.0, 223232.0, 184320.0, 223232.0, 471040.0, 153600.0, 174080.0, 305152.0, 223232.0, 223232.0, 144384.0, 237568.0, 209920.0, 252928.0, 153600.0, 184320.0, 135168.0, 209920.0, 209920.0, 184320.0, 153600.0, 119296.0, 126976.0, 144384.0, 126976.0, 162816.0, 112128.0, 196608.0, 49664.0, 98816.0, 174080.0, 87040.0, 346112.0, 209920.0, 162816.0, 98816.0, 135168.0, 196608.0, 184320.0, 184320.0, 174080.0, 119296.0, 174080.0, 98816.0, 92672.0, 174080.0, 346112.0, 105472.0, 268288.0, 162816.0, 223232.0, 59904.0, 184320.0, 196608.0, 119296.0, 196608.0, 76800.0, 119296.0, 87040.0, 81920.0, 162816.0, 72192.0, 98816.0, 126976.0, 112128.0, 119296.0, 184320.0, 87040.0, 144384.0, 105472.0, 209920.0, 223232.0, 126976.0, 174080.0, 162816.0, 105472.0, 81920.0, 76800.0, 135168.0, 174080.0, 223232.0, 52992.0, 237568.0, 112128.0, 174080.0, 126976.0, 153600.0, 119296.0, 153600.0, 126976.0, 174080.0, 72192.0, 126976.0, 81920.0, 98816.0, 144384.0, 72192.0, 196608.0, 105472.0, 174080.0, 162816.0, 162816.0, 196608.0, 162816.0, 105472.0, 87040.0, 98816.0, 119296.0, 98816.0, 162816.0, 112128.0, 63744.0, 87040.0, 153600.0, 144384.0, 87040.0, 119296.0, 81920.0, 68096.0, 135168.0, 81920.0, 196608.0, 72192.0, 174080.0, 144384.0, 119296.0, 162816.0, 105472.0, 81920.0, 135168.0, 105472.0, 81920.0, 87040.0, 126976.0, 72192.0, 87040.0, 135168.0, 119296.0, 68096.0, 119296.0, 68096.0, 63744.0, 87040.0, 112128.0, 81920.0, 46592.0, 56320.0, 56320.0, 92672.0, 59904.0, 76800.0, 92672.0, 52992.0, 112128.0, 92672.0, 98816.0, 92672.0, 144384.0, 87040.0, 153600.0, 153600.0, 162816.0, 162816.0, 87040.0, 92672.0, 153600.0, 87040.0, 112128.0, 196608.0, 237568.0, 112128.0, 98816.0, 237568.0, 98816.0, 76800.0, 63744.0, 68096.0, 72192.0, 98816.0, 112128.0, 72192.0, 63744.0, 87040.0, 68096.0, 92672.0, 126976.0, 112128.0, 92672.0, 144384.0, 237568.0, 87040.0, 112128.0, 126976.0, 81920.0, 72192.0, 98816.0, 72192.0, 98816.0, 72192.0, 119296.0, 135168.0, 184320.0, 81920.0, 126976.0, 144384.0, 174080.0, 135168.0, 112128.0, 92672.0, 119296.0, 174080.0, 87040.0, 98816.0, 92672.0, 153600.0, 105472.0, 209920.0, 119296.0, 98816.0, 153600.0, 81920.0, 68096.0, 68096.0, 92672.0, 63744.0, 92672.0, 119296.0, 72192.0, 153600.0, 223232.0, 126976.0, 135168.0, 223232.0, 153600.0, 112128.0, 98816.0, 162816.0, 92672.0, 105472.0, 105472.0, 98816.0, 112128.0, 119296.0, 126976.0, 144384.0, 92672.0, 49664.0, 126976.0, 196608.0, 196608.0, 286720.0, 135168.0, 76800.0, 174080.0, 184320.0, 144384.0, 162816.0, 119296.0, 126976.0, 153600.0, 30208.0, 46592.0, 56320.0, 36352.0, 43776.0, 41216.0, 49664.0, 52992.0, 36352.0, 28288.0, 20736.0, 20736.0, 30208.0, 38656.0, 52992.0, 38656.0, 34304.0, 34304.0, 34304.0, 41216.0, 38656.0, 41216.0, 52992.0, 36352.0, 43776.0, 36352.0, 30208.0, 38656.0, 11840.0, 22016.0, 11840.0, 135168.0, 105472.0, 92672.0, 72192.0, 135168.0, 105472.0, 105472.0, 144384.0, 135168.0, 135168.0, 144384.0, 162816.0, 252928.0, 252928.0, 153600.0, 126976.0, 144384.0, 119296.0, 46592.0, 49664.0, 63744.0, 43776.0, 81920.0, 162816.0, 223232.0, 162816.0, 209920.0, 252928.0, 268288.0, 112128.0, 126976.0, 184320.0, 92672.0, 237568.0, 105472.0, 174080.0, 119296.0, 92672.0, 119296.0, 119296.0, 119296.0, 59904.0, 119296.0, 174080.0, 135168.0, 72192.0, 59904.0, 126976.0, 87040.0, 105472.0, 72192.0, 144384.0, 105472.0, 87040.0, 105472.0, 87040.0, 92672.0, 68096.0, 112128.0, 126976.0, 76800.0, 98816.0, 56320.0, 135168.0, 135168.0, 119296.0, 92672.0, 43776.0, 162816.0, 68096.0, 87040.0, 92672.0, 98816.0, 92672.0, 126976.0, 68096.0, 63744.0, 112128.0, 126976.0, 76800.0, 87040.0, 144384.0, 286720.0, 184320.0, 126976.0, 174080.0, 76800.0, 119296.0, 112128.0, 98816.0, 135168.0, 81920.0, 119296.0, 112128.0, 184320.0, 471040.0, 346112.0, 268288.0, 323584.0, 252928.0, 569344.0, 391168.0, 174080.0, 391168.0, 252928.0, 268288.0, 268288.0, 196608.0, 174080.0, 174080.0, 162816.0, 237568.0, 162816.0, 174080.0, 268288.0, 153600.0, 209920.0, 223232.0, 237568.0, 135168.0, 268288.0, 237568.0, 162816.0, 252928.0, 98816.0, 268288.0, 184320.0, 223232.0, 59904.0, 76800.0, 52992.0, 52992.0, 41216.0, 59904.0, 59904.0, 63744.0, 59904.0, 72192.0, 72192.0, 49664.0, 56320.0, 68096.0, 76800.0, 68096.0, 68096.0, 72192.0, 59904.0, 68096.0, 68096.0, 81920.0, 59904.0, 52992.0, 72192.0, 46592.0, 46592.0, 76800.0, 49664.0, 63744.0, 59904.0, 49664.0, 68096.0, 59904.0, 52992.0, 68096.0, 72192.0, 76800.0, 72192.0, 68096.0, 68096.0, 87040.0, 98816.0, 68096.0, 87040.0, 223232.0, 153600.0, 112128.0, 135168.0, 162816.0, 119296.0, 153600.0, 184320.0, 81920.0, 92672.0, 119296.0, 92672.0, 105472.0, 119296.0, 112128.0, 92672.0, 112128.0, 87040.0, 112128.0, 87040.0, 112128.0, 153600.0, 98816.0, 112128.0, 184320.0, 105472.0, 126976.0, 119296.0, 144384.0, 112128.0, 126976.0, 153600.0, 196608.0, 126976.0, 105472.0, 87040.0, 126976.0, 144384.0, 119296.0, 112128.0, 126976.0, 105472.0, 105472.0, 98816.0, 119296.0, 98816.0, 98816.0, 135168.0, 119296.0, 112128.0, 87040.0, 153600.0, 119296.0, 76800.0, 126976.0, 209920.0, 144384.0, 105472.0, 153600.0, 98816.0, 144384.0, 105472.0, 135168.0, 135168.0, 126976.0, 119296.0, 81920.0, 81920.0, 112128.0, 126976.0, 98816.0, 126976.0, 119296.0, 135168.0, 162816.0]","[10.9375, 9.125, 9.375, 9.4375, 9.4375, 9.3125, 9.3125, 9.5, 9.375, 9.375, 9.25, 9.3125, 9.5, 9.5, 9.375, 9.4375, 9.375, 9.375, 9.6875, 9.5625, 9.3125, 9.4375, 9.5625, 9.3125, 9.375, 9.375, 9.5625, 9.5625, 9.4375, 9.4375, 9.5, 9.4375, 9.5, 9.5, 9.5, 9.625, 9.5625, 9.4375, 9.5, 9.4375, 9.625, 9.5625, 9.5, 9.5625, 9.5625, 9.5625, 9.375, 9.4375, 9.5, 9.4375, 9.375, 9.5, 9.375, 9.5, 9.4375, 9.5625, 9.4375, 9.4375, 9.5625, 9.4375, 9.5, 9.5625, 9.5, 9.5, 9.5, 9.375, 9.5625, 9.5625, 9.4375, 9.5, 9.5625, 9.5625, 9.625, 9.4375, 9.4375, 9.5, 9.625, 9.5, 9.5, 9.5, 9.5, 9.625, 9.625, 9.625, 9.5625, 9.5, 9.5625, 9.5, 9.5, 9.5625, 9.5625, 9.375, 9.5625, 9.375, 9.5625, 9.3125, 9.4375, 9.375, 9.4375, 9.5, 9.4375, 9.5625, 9.5625, 9.625, 9.4375, 9.5625, 9.5, 9.625, 9.625, 9.5625, 9.5, 9.6875, 9.5625, 9.5, 9.4375, 9.625, 9.75, 9.5, 9.375, 9.5, 9.4375, 9.5, 9.5625, 9.625, 9.625, 9.5625, 9.5, 9.6875, 9.75, 9.6875, 9.5, 9.625, 9.625, 9.625, 9.625, 9.5, 9.6875, 9.5, 9.5, 9.5, 9.625, 9.625, 9.625, 9.5625, 9.625, 9.75, 9.625, 9.75, 9.75, 9.6875, 9.5625, 9.5625, 9.5625, 9.5625, 9.75, 9.625, 9.625, 9.8125, 9.5, 9.4375, 9.5625, 9.625, 9.625, 9.5625, 9.75, 9.8125, 9.625, 9.5, 9.6875, 10.0, 9.6875, 9.6875, 9.6875, 9.6875, 9.5625, 9.5625, 9.5625, 9.4375, 9.4375, 9.5625, 9.4375, 9.625, 9.6875, 9.5625, 9.4375, 9.5, 9.5625, 9.5625, 9.6875, 9.625, 9.5, 9.6875, 9.5625, 9.4375, 9.625, 9.5625, 9.25, 9.5, 9.75, 9.625, 9.6875, 9.75, 9.75, 9.8125, 9.75, 9.625, 9.625, 9.6875, 9.625, 9.625, 9.6875, 9.625, 9.5625, 9.75, 9.8125, 9.6875, 9.9375, 9.8125, 10.1875, 10.1875, 9.8125, 9.75, 9.5, 9.8125, 9.625, 9.75, 9.4375, 9.5, 9.375, 9.375, 9.5625, 9.6875, 9.6875, 9.5625, 9.625, 9.6875, 9.75, 9.6875, 9.8125, 9.8125, 9.75, 9.8125, 9.75, 9.6875, 9.9375, 9.8125, 9.8125, 9.6875, 9.875, 9.75, 9.875, 9.8125, 9.8125, 9.8125, 9.9375, 9.6875, 9.875, 9.625, 9.625, 9.875, 9.6875, 9.625, 9.6875, 9.75, 9.5625, 9.75, 9.625, 9.5625, 9.75, 9.625, 10.0625, 10.0, 9.75, 9.875, 9.875, 9.875, 9.75, 9.6875, 9.75, 10.25, 10.0, 10.0625, 10.0625, 10.375, 10.0, 10.1875, 9.875, 9.75, 10.125, 10.0625, 9.875, 9.6875, 9.875, 10.0, 10.0, 10.0, 10.125, 9.8125, 9.9375, 10.0625, 9.9375, 9.75, 9.875, 9.6875, 9.8125, 10.0625, 9.9375, 9.6875, 9.75, 9.6875, 9.8125, 9.9375, 9.8125, 9.875, 9.875, 9.75, 9.8125, 9.9375, 9.75, 9.9375, 9.8125, 10.0, 9.9375, 9.8125, 9.9375, 9.9375, 10.0625, 9.8125, 9.6875, 10.0, 10.0625, 9.75, 9.9375, 10.0625, 9.9375, 9.875, 9.875, 9.9375, 9.75, 9.5625, 9.9375, 9.875, 9.75, 9.9375, 9.9375, 9.9375, 9.9375, 10.0625, 9.75, 10.0625, 10.4375, 10.125, 10.3125, 10.125, 10.1875, 10.3125, 9.9375, 10.1875, 9.8125, 10.375, 10.375, 10.3125, 10.4375, 10.125, 10.5625, 10.3125, 10.3125, 10.125, 10.3125, 10.25, 10.375, 10.375, 10.5625, 10.6875, 10.3125, 10.3125, 10.1875, 10.125, 10.3125, 10.3125, 10.375, 9.875, 10.125, 10.1875, 10.25, 10.25, 10.0, 9.9375, 9.875, 10.0625, 9.875, 10.125, 9.75, 10.25, 10.0625, 10.25, 10.125, 10.5, 10.625, 10.4375, 9.9375, 10.0, 9.9375, 9.875, 9.6875, 9.9375, 9.9375, 10.125, 10.3125, 10.25, 10.4375, 10.375, 10.125, 10.5, 10.3125, 10.0, 9.9375, 10.0, 10.0, 10.125, 10.125, 9.9375, 10.375, 12.1875, 11.0, 10.8125, 10.5625, 10.5, 10.5625, 10.75, 10.9375, 10.5625, 11.0, 10.875, 10.8125, 10.625, 10.625, 10.625, 10.6875, 10.6875, 10.625, 10.25, 10.375, 10.6875, 10.5, 10.1875, 10.375, 10.8125, 10.125, 10.375, 10.875, 10.0, 10.375, 10.0, 10.3125, 10.375, 10.625, 10.6875, 10.875, 10.6875, 10.5, 10.625, 10.3125, 10.5, 10.5625, 10.4375, 10.25, 10.4375, 10.0, 10.1875, 10.1875, 10.375, 10.25, 10.75, 10.625, 10.625, 10.3125, 10.0625, 10.5625, 10.4375, 10.4375, 10.875, 10.375, 10.3125, 10.375, 10.25, 10.5625, 10.625, 10.25, 10.5625, 10.5, 10.375, 10.25, 10.25, 10.4375, 10.3125, 10.375, 10.3125, 10.25, 10.1875, 10.75, 10.75, 10.375, 10.5625, 10.5625, 10.0, 10.125, 10.1875, 10.1875, 10.0625, 10.75, 10.5625, 10.5, 10.3125, 10.375, 10.375, 11.1875, 10.75, 10.875, 10.6875, 10.5, 10.4375, 10.4375, 10.5, 10.5625, 10.625, 10.5, 10.9375, 10.875, 10.8125, 11.3125, 11.375, 10.875, 11.0, 10.6875, 11.0, 11.3125, 11.0625, 11.3125, 11.125, 10.5, 10.6875, 10.75, 10.5, 10.25, 10.875, 11.125, 11.125, 10.9375, 11.0625, 10.875, 10.8125, 10.625, 10.6875, 10.75, 10.5, 10.75, 10.9375, 10.9375, 10.75, 10.5, 10.625, 10.4375, 10.6875, 10.75, 9.9375, 9.75, 10.375, 10.375, 10.125, 10.4375, 10.5, 10.375, 10.25, 10.3125, 10.25, 10.0, 10.25, 10.1875, 9.9375, 10.0625, 10.375, 10.5, 10.5, 10.3125, 10.1875, 10.3125, 10.0625, 10.375, 10.125, 10.3125, 10.25, 10.5625, 10.5, 10.6875, 10.625, 10.4375, 10.5, 10.5, 10.5625, 10.5625, 10.875, 10.9375, 10.75, 11.125, 10.75, 10.5, 10.5625, 10.5625, 10.375, 10.375, 10.5, 10.4375, 10.375, 10.5, 10.375, 10.0, 10.4375, 10.625, 10.6875, 10.75, 11.0, 10.6875, 10.3125, 10.625, 10.5625, 10.75, 10.625, 11.0625, 10.8125, 10.9375, 10.875, 10.6875, 10.75, 10.4375, 10.375, 10.6875, 10.8125, 10.5, 11.0, 10.75, 10.875, 11.0, 11.0, 10.625, 10.5, 10.4375, 10.5, 10.9375, 11.5625, 11.4375, 11.4375, 11.0625, 10.6875, 11.0, 11.25, 11.0, 11.1875, 10.8125, 10.875, 11.0625, 11.3125, 11.25, 11.0, 10.75, 10.875, 10.8125, 10.3125, 10.4375, 10.625, 10.75, 10.8125, 11.5625, 11.5, 11.6875, 11.875, 11.0, 10.625, 11.1875, 11.0625, 10.8125, 10.4375, 10.875, 10.3125, 10.5625, 10.4375, 10.1875, 10.375, 10.3125, 10.5, 10.75, 10.8125, 10.9375, 10.75, 10.375, 10.625, 10.5625, 10.4375, 10.3125, 10.625, 10.625, 10.625, 10.875, 11.125, 10.8125, 10.5, 10.6875, 10.5, 10.625, 10.375, 10.6875, 10.875, 10.5, 10.5625, 10.75, 10.6875, 10.5, 10.6875, 10.5, 10.6875, 11.3125, 11.3125, 11.125, 11.125, 11.125, 11.125, 10.8125, 10.6875, 10.625, 11.25, 11.3125, 11.8125, 11.625, 11.5625, 11.375, 11.1875, 11.1875, 11.1875, 11.5625, 11.6875, 11.0, 11.3125, 11.4375, 11.5, 11.1875, 11.3125, 11.125, 11.0625, 11.1875, 11.5625, 11.6875, 11.5625, 11.5, 10.9375, 11.0, 11.0, 11.1875, 11.4375, 11.1875, 11.125, 11.0625, 11.25, 10.9375, 10.8125, 11.0, 11.0625, 10.875, 11.0, 10.9375, 10.75, 10.375, 10.125, 10.4375, 10.5625, 10.625, 10.625, 10.4375, 10.875, 10.5, 10.75, 10.8125, 10.8125, 10.9375, 10.9375, 10.5625, 10.625, 10.6875, 10.3125, 10.3125, 10.3125, 11.4375, 12.125, 11.875, 11.875, 11.625, 11.3125, 11.125, 11.375, 11.6875, 11.625, 11.8125, 12.0, 11.75, 11.75, 11.375, 11.5, 11.0625, 12.1875, 12.1875, 11.4375, 11.125, 11.0, 11.125, 11.0625, 11.1875, 11.0, 11.0625, 10.75, 10.875, 10.5, 10.75, 10.625, 10.5, 10.4375, 10.8125, 10.5625, 10.875, 10.9375, 10.6875, 10.5, 10.875, 10.9375, 10.8125, 10.4375, 10.5, 10.25, 10.125, 10.375, 10.75, 10.5625, 10.5, 10.3125, 10.5, 10.3125, 10.125, 10.25, 10.4375, 10.6875, 10.5, 10.375, 10.1875, 10.375, 10.25, 10.125, 10.125, 10.75, 11.0625, 11.1875, 11.375, 11.25, 11.875, 11.75, 11.625, 11.4375, 11.0, 10.9375, 10.9375, 10.9375, 10.6875, 10.5, 11.0, 11.0625, 11.25, 10.8125, 10.75, 10.75, 10.6875, 10.75, 10.875, 11.0625, 10.75, 10.4375, 10.9375, 10.6875, 11.0625, 10.375, 10.6875, 10.4375, 10.9375, 11.125, 10.9375, 11.5, 11.9375, 11.5625, 11.4375, 11.0, 11.375, 9.8125, 9.9375, 9.9375, 10.125, 9.9375, 10.0, 10.0, 10.125, 10.25, 10.25, 10.4375, 10.375, 10.0625, 10.25, 10.1875, 10.0, 10.0625, 9.9375, 10.25, 10.1875, 10.1875, 10.4375, 10.375, 10.1875, 9.8125, 9.875, 10.25, 10.125, 10.0, 10.0, 9.9375, 9.9375, 10.1875, 10.375, 10.625, 10.375, 10.125, 10.25, 10.25, 10.125, 10.3125, 10.5, 10.125, 10.3125, 10.375, 10.3125, 10.3125, 10.375, 10.5, 10.5625, 10.3125, 10.25, 10.375, 10.125, 10.125, 10.3125, 10.25, 10.375, 10.3125, 10.25, 10.4375, 10.3125, 10.3125, 10.375, 10.1875, 10.375, 10.25, 10.1875, 10.3125, 10.3125, 10.375, 10.375, 10.1875, 10.1875, 10.0625, 10.0, 10.125, 10.3125, 10.3125, 10.4375, 10.625, 10.375, 10.625, 10.6875, 10.5625, 10.5625, 10.4375, 10.375, 10.375, 10.5, 10.5, 10.4375, 13.6875, 17.0, 15.0, 13.8125, 13.0625, 13.375, 13.125, 13.6875, 13.625, 13.4375, 13.0625, 12.8125, 13.0, 13.5, 12.375, 11.25, 10.5625, 10.5625, 10.75, 11.3125, 10.8125, 12.875, 12.625, 12.0, 11.875, 11.625, 11.375, 11.5, 11.3125, 11.5625, 11.4375, 11.25, 11.5625, 12.3125, 11.8125, 11.75, 12.4375, 12.0, 12.1875, 11.875, 11.875, 11.6875, 11.4375, 11.1875, 11.8125, 11.9375, 11.125, 11.5625, 11.875, 12.0625, 12.125, 12.0, 11.9375, 11.3125, 11.75, 11.8125, 12.4375, 12.875, 12.625, 11.9375, 11.9375, 11.5, 12.0625, 11.375, 11.5625, 11.5625, 11.5625, 11.625, 11.125, 11.5, 11.8125, 11.875, 11.8125, 11.75, 11.8125, 11.9375, 11.6875, 11.25, 11.8125, 11.375, 11.625, 11.875, 11.25, 10.9375, 11.5, 11.8125, 11.625, 11.8125, 11.5, 11.6875, 12.4375, 12.8125, 12.125, 12.125, 12.0625, 12.3125, 11.6875, 12.1875, 12.125, 12.25, 12.0, 12.1875, 11.1875, 11.5625, 11.0625, 11.375, 12.0, 11.5625, 11.9375, 11.6875, 11.8125, 11.375, 11.25, 11.5625, 11.125, 11.75, 11.6875, 11.75, 11.9375, 11.75, 11.5625, 11.75, 11.1875, 11.375, 11.375, 11.3125, 11.5, 11.75, 11.3125, 10.625, 10.625, 11.0, 10.9375, 10.6875, 11.125, 11.6875, 11.3125, 11.0, 11.0, 11.3125, 11.8125, 11.6875, 11.125, 11.0, 10.9375, 10.875, 10.5, 10.6875, 11.375, 10.9375, 12.125, 11.625, 11.5, 11.5, 11.875, 11.375, 11.375, 11.1875, 11.0625, 10.5625, 10.4375, 10.75, 10.75, 10.8125, 10.3125, 10.75, 10.8125, 10.625, 10.75, 10.6875, 10.4375, 10.375, 10.4375, 10.3125, 10.875, 10.6875, 11.0, 11.0, 11.125, 10.6875, 10.9375, 10.4375, 10.875, 10.5625, 10.875, 10.875, 11.0, 11.0625, 10.9375, 10.9375, 11.0625, 11.0, 10.6875, 10.5, 10.5625, 10.75, 10.875, 10.5625, 10.25, 10.375, 10.5, 10.75, 10.875, 10.5625, 10.5, 10.25, 10.5625, 10.8125, 10.5, 11.0, 11.5, 11.75, 11.6875, 11.75, 11.5625, 11.4375, 11.125, 11.125, 11.4375, 11.125, 11.5, 11.875, 11.6875, 11.75, 11.5625, 11.1875, 10.8125, 10.375, 10.625, 10.5625, 10.8125, 10.75, 10.8125, 10.875, 10.75, 10.6875, 10.5625, 10.5625, 10.9375, 10.75, 10.625, 10.9375, 11.1875, 10.9375, 10.8125, 11.0625, 10.625, 10.9375, 10.875, 10.5, 10.75, 10.625, 10.25, 10.1875, 10.5625, 10.125, 10.125, 10.25, 10.5, 10.5, 10.5625, 10.1875, 10.3125, 10.125, 10.3125, 10.25, 10.25, 10.75, 10.5625, 11.0625, 11.1875, 10.75, 10.9375, 10.5, 10.375, 10.0625, 10.625, 10.4375, 10.1875, 10.4375, 10.1875, 11.25, 12.5625, 12.1875, 11.75, 11.375, 11.4375, 11.25, 11.5625, 11.4375, 10.875, 11.125, 10.9375, 11.25, 11.4375, 11.25, 11.1875, 11.1875, 11.3125, 10.9375, 11.5, 11.3125, 12.5, 11.875, 12.0, 11.5625, 12.0, 12.0625, 11.75, 11.625, 11.375, 11.3125, 11.5, 9.6875, 9.9375, 10.125, 10.0, 10.25, 9.9375, 9.9375, 9.8125, 10.25, 11.0625, 11.125, 11.1875, 9.75, 10.0, 9.8125, 9.875, 9.9375, 9.8125, 9.9375, 9.9375, 9.9375, 10.125, 10.0, 9.9375, 9.875, 9.5625, 9.6875, 9.6875, 9.625, 9.6875, 9.375, 10.875, 10.8125, 10.6875, 10.5625, 10.875, 11.25, 11.0625, 11.0625, 11.25, 11.4375, 11.5, 11.6875, 11.625, 11.6875, 11.375, 11.5, 11.25, 10.0, 10.1875, 10.125, 10.5, 9.9375, 10.3125, 10.5, 10.375, 10.625, 10.4375, 10.625, 10.8125, 10.5, 10.8125, 10.75, 10.4375, 10.75, 11.0625, 11.0, 10.625, 10.6875, 10.8125, 10.8125, 10.875, 10.5, 11.125, 11.3125, 11.4375, 10.9375, 10.8125, 10.875, 10.875, 11.0625, 10.625, 10.75, 11.125, 11.0625, 11.125, 10.9375, 11.0, 10.8125, 10.875, 10.8125, 10.75, 10.75, 10.8125, 11.3125, 10.625, 10.8125, 10.6875, 10.625, 11.0625, 10.5, 10.4375, 10.6875, 10.6875, 10.625, 11.0625, 10.5625, 10.4375, 10.375, 10.375, 10.5, 10.3125, 10.6875, 11.75, 11.6875, 11.4375, 11.4375, 10.6875, 11.0, 10.75, 10.9375, 11.5, 11.125, 11.0, 11.125, 11.375, 12.4375, 12.5625, 12.0625, 12.3125, 12.25, 12.5625, 12.375, 11.8125, 11.8125, 11.625, 12.0625, 11.8125, 11.5625, 11.6875, 11.75, 11.625, 11.75, 11.625, 11.625, 12.0, 11.75, 11.4375, 11.75, 11.75, 11.75, 12.0625, 11.8125, 11.6875, 11.625, 11.5625, 11.875, 11.625, 11.4375, 10.1875, 10.25, 10.0, 10.125, 9.8125, 10.125, 10.1875, 10.1875, 10.125, 10.375, 10.4375, 10.1875, 10.1875, 10.75, 10.25, 10.3125, 10.3125, 10.25, 10.3125, 10.25, 10.375, 10.375, 10.125, 10.0, 10.25, 10.0625, 10.0, 10.4375, 10.0625, 10.375, 10.4375, 10.125, 10.3125, 10.1875, 10.4375, 10.4375, 10.25, 10.1875, 10.5, 10.4375, 10.625, 10.625, 10.5, 10.1875, 10.625, 12.375, 11.9375, 10.8125, 10.9375, 11.0625, 10.5625, 11.125, 11.125, 10.9375, 10.625, 10.875, 10.625, 10.625, 10.875, 10.8125, 10.6875, 10.8125, 10.8125, 11.0625, 10.75, 11.1875, 11.125, 10.8125, 10.75, 11.125, 10.5625, 10.8125, 10.6875, 10.9375, 10.75, 11.0, 10.875, 11.0625, 10.625, 10.625, 10.625, 10.9375, 10.875, 10.6875, 10.75, 10.9375, 10.5, 10.625, 10.8125, 11.1875, 10.4375, 11.0625, 11.125, 11.0, 11.0, 11.0, 11.1875, 10.875, 10.75, 11.0625, 11.1875, 10.75, 10.5625, 10.75, 10.5, 10.8125, 10.5625, 10.4375, 10.375, 10.625, 10.25, 10.1875, 10.125, 10.25, 10.375, 10.0625, 10.375, 10.375, 10.4375, 10.4375]","[56320.0, 9216.0, 11840.0, 12544.0, 12544.0, 11072.0, 11072.0, 13376.0, 11840.0, 11840.0, 10432.0, 11072.0, 13376.0, 13376.0, 11840.0, 12544.0, 11840.0, 11840.0, 16128.0, 14272.0, 11072.0, 12544.0, 14272.0, 11072.0, 11840.0, 11840.0, 14272.0, 14272.0, 12544.0, 12544.0, 13376.0, 12544.0, 13376.0, 13376.0, 13376.0, 15168.0, 14272.0, 12544.0, 13376.0, 12544.0, 15168.0, 14272.0, 13376.0, 14272.0, 14272.0, 14272.0, 11840.0, 12544.0, 13376.0, 12544.0, 11840.0, 13376.0, 11840.0, 13376.0, 12544.0, 14272.0, 12544.0, 12544.0, 14272.0, 12544.0, 13376.0, 14272.0, 13376.0, 13376.0, 13376.0, 11840.0, 14272.0, 14272.0, 12544.0, 13376.0, 14272.0, 14272.0, 15168.0, 12544.0, 12544.0, 13376.0, 15168.0, 13376.0, 13376.0, 13376.0, 13376.0, 15168.0, 15168.0, 15168.0, 14272.0, 13376.0, 14272.0, 13376.0, 13376.0, 14272.0, 14272.0, 11840.0, 14272.0, 11840.0, 14272.0, 11072.0, 12544.0, 11840.0, 12544.0, 13376.0, 12544.0, 14272.0, 14272.0, 15168.0, 12544.0, 14272.0, 13376.0, 15168.0, 15168.0, 14272.0, 13376.0, 16128.0, 14272.0, 13376.0, 12544.0, 15168.0, 17152.0, 13376.0, 11840.0, 13376.0, 12544.0, 13376.0, 14272.0, 15168.0, 15168.0, 14272.0, 13376.0, 16128.0, 17152.0, 16128.0, 13376.0, 15168.0, 15168.0, 15168.0, 15168.0, 13376.0, 16128.0, 13376.0, 13376.0, 13376.0, 15168.0, 15168.0, 15168.0, 14272.0, 15168.0, 17152.0, 15168.0, 17152.0, 17152.0, 16128.0, 14272.0, 14272.0, 14272.0, 14272.0, 17152.0, 15168.0, 15168.0, 18304.0, 13376.0, 12544.0, 14272.0, 15168.0, 15168.0, 14272.0, 17152.0, 18304.0, 15168.0, 13376.0, 16128.0, 22016.0, 16128.0, 16128.0, 16128.0, 16128.0, 14272.0, 14272.0, 14272.0, 12544.0, 12544.0, 14272.0, 12544.0, 15168.0, 16128.0, 14272.0, 12544.0, 13376.0, 14272.0, 14272.0, 16128.0, 15168.0, 13376.0, 16128.0, 14272.0, 12544.0, 15168.0, 14272.0, 10432.0, 13376.0, 17152.0, 15168.0, 16128.0, 17152.0, 17152.0, 18304.0, 17152.0, 15168.0, 15168.0, 16128.0, 15168.0, 15168.0, 16128.0, 15168.0, 14272.0, 17152.0, 18304.0, 16128.0, 20736.0, 18304.0, 26624.0, 26624.0, 18304.0, 17152.0, 13376.0, 18304.0, 15168.0, 17152.0, 12544.0, 13376.0, 11840.0, 11840.0, 14272.0, 16128.0, 16128.0, 14272.0, 15168.0, 16128.0, 17152.0, 16128.0, 18304.0, 18304.0, 17152.0, 18304.0, 17152.0, 16128.0, 20736.0, 18304.0, 18304.0, 16128.0, 19456.0, 17152.0, 19456.0, 18304.0, 18304.0, 18304.0, 20736.0, 16128.0, 19456.0, 15168.0, 15168.0, 19456.0, 16128.0, 15168.0, 16128.0, 17152.0, 14272.0, 17152.0, 15168.0, 14272.0, 17152.0, 15168.0, 23424.0, 22016.0, 17152.0, 19456.0, 19456.0, 19456.0, 17152.0, 16128.0, 17152.0, 28288.0, 22016.0, 23424.0, 23424.0, 32128.0, 22016.0, 26624.0, 19456.0, 17152.0, 24960.0, 23424.0, 19456.0, 16128.0, 19456.0, 22016.0, 22016.0, 22016.0, 24960.0, 18304.0, 20736.0, 23424.0, 20736.0, 17152.0, 19456.0, 16128.0, 18304.0, 23424.0, 20736.0, 16128.0, 17152.0, 16128.0, 18304.0, 20736.0, 18304.0, 19456.0, 19456.0, 17152.0, 18304.0, 20736.0, 17152.0, 20736.0, 18304.0, 22016.0, 20736.0, 18304.0, 20736.0, 20736.0, 23424.0, 18304.0, 16128.0, 22016.0, 23424.0, 17152.0, 20736.0, 23424.0, 20736.0, 19456.0, 19456.0, 20736.0, 17152.0, 14272.0, 20736.0, 19456.0, 17152.0, 20736.0, 20736.0, 20736.0, 20736.0, 23424.0, 17152.0, 23424.0, 34304.0, 24960.0, 30208.0, 24960.0, 26624.0, 30208.0, 20736.0, 26624.0, 18304.0, 32128.0, 32128.0, 30208.0, 34304.0, 24960.0, 38656.0, 30208.0, 30208.0, 24960.0, 30208.0, 28288.0, 32128.0, 32128.0, 38656.0, 43776.0, 30208.0, 30208.0, 26624.0, 24960.0, 30208.0, 30208.0, 32128.0, 19456.0, 24960.0, 26624.0, 28288.0, 28288.0, 22016.0, 20736.0, 19456.0, 23424.0, 19456.0, 24960.0, 17152.0, 28288.0, 23424.0, 28288.0, 24960.0, 36352.0, 41216.0, 34304.0, 20736.0, 22016.0, 20736.0, 19456.0, 16128.0, 20736.0, 20736.0, 24960.0, 30208.0, 28288.0, 34304.0, 32128.0, 24960.0, 36352.0, 30208.0, 22016.0, 20736.0, 22016.0, 22016.0, 24960.0, 24960.0, 20736.0, 32128.0, 196608.0, 59904.0, 49664.0, 38656.0, 36352.0, 38656.0, 46592.0, 56320.0, 38656.0, 59904.0, 52992.0, 49664.0, 41216.0, 41216.0, 41216.0, 43776.0, 43776.0, 41216.0, 28288.0, 32128.0, 43776.0, 36352.0, 26624.0, 32128.0, 49664.0, 24960.0, 32128.0, 52992.0, 22016.0, 32128.0, 22016.0, 30208.0, 32128.0, 41216.0, 43776.0, 52992.0, 43776.0, 36352.0, 41216.0, 30208.0, 36352.0, 38656.0, 34304.0, 28288.0, 34304.0, 22016.0, 26624.0, 26624.0, 32128.0, 28288.0, 46592.0, 41216.0, 41216.0, 30208.0, 23424.0, 38656.0, 34304.0, 34304.0, 52992.0, 32128.0, 30208.0, 32128.0, 28288.0, 38656.0, 41216.0, 28288.0, 38656.0, 36352.0, 32128.0, 28288.0, 28288.0, 34304.0, 30208.0, 32128.0, 30208.0, 28288.0, 26624.0, 46592.0, 46592.0, 32128.0, 38656.0, 38656.0, 22016.0, 24960.0, 26624.0, 26624.0, 23424.0, 46592.0, 38656.0, 36352.0, 30208.0, 32128.0, 32128.0, 72192.0, 46592.0, 52992.0, 43776.0, 36352.0, 34304.0, 34304.0, 36352.0, 38656.0, 41216.0, 36352.0, 56320.0, 52992.0, 49664.0, 81920.0, 87040.0, 52992.0, 59904.0, 43776.0, 59904.0, 81920.0, 63744.0, 81920.0, 68096.0, 36352.0, 43776.0, 46592.0, 36352.0, 28288.0, 52992.0, 68096.0, 68096.0, 56320.0, 63744.0, 52992.0, 49664.0, 41216.0, 43776.0, 46592.0, 36352.0, 46592.0, 56320.0, 56320.0, 46592.0, 36352.0, 41216.0, 34304.0, 43776.0, 46592.0, 20736.0, 17152.0, 32128.0, 32128.0, 24960.0, 34304.0, 36352.0, 32128.0, 28288.0, 30208.0, 28288.0, 22016.0, 28288.0, 26624.0, 20736.0, 23424.0, 32128.0, 36352.0, 36352.0, 30208.0, 26624.0, 30208.0, 23424.0, 32128.0, 24960.0, 30208.0, 28288.0, 38656.0, 36352.0, 43776.0, 41216.0, 34304.0, 36352.0, 36352.0, 38656.0, 38656.0, 52992.0, 56320.0, 46592.0, 68096.0, 46592.0, 36352.0, 38656.0, 38656.0, 32128.0, 32128.0, 36352.0, 34304.0, 32128.0, 36352.0, 32128.0, 22016.0, 34304.0, 41216.0, 43776.0, 46592.0, 59904.0, 43776.0, 30208.0, 41216.0, 38656.0, 46592.0, 41216.0, 63744.0, 49664.0, 56320.0, 52992.0, 43776.0, 46592.0, 34304.0, 32128.0, 43776.0, 49664.0, 36352.0, 59904.0, 46592.0, 52992.0, 59904.0, 59904.0, 41216.0, 36352.0, 34304.0, 36352.0, 56320.0, 105472.0, 92672.0, 92672.0, 63744.0, 43776.0, 59904.0, 76800.0, 59904.0, 72192.0, 49664.0, 52992.0, 63744.0, 81920.0, 76800.0, 59904.0, 46592.0, 52992.0, 49664.0, 30208.0, 34304.0, 41216.0, 46592.0, 49664.0, 105472.0, 98816.0, 119296.0, 144384.0, 59904.0, 41216.0, 72192.0, 63744.0, 49664.0, 34304.0, 52992.0, 30208.0, 38656.0, 34304.0, 26624.0, 32128.0, 30208.0, 36352.0, 46592.0, 49664.0, 56320.0, 46592.0, 32128.0, 41216.0, 38656.0, 34304.0, 30208.0, 41216.0, 41216.0, 41216.0, 52992.0, 68096.0, 49664.0, 36352.0, 43776.0, 36352.0, 41216.0, 32128.0, 43776.0, 52992.0, 36352.0, 38656.0, 46592.0, 43776.0, 36352.0, 43776.0, 36352.0, 43776.0, 81920.0, 81920.0, 68096.0, 68096.0, 68096.0, 68096.0, 49664.0, 43776.0, 41216.0, 76800.0, 81920.0, 135168.0, 112128.0, 105472.0, 87040.0, 72192.0, 72192.0, 72192.0, 105472.0, 119296.0, 59904.0, 81920.0, 92672.0, 98816.0, 72192.0, 81920.0, 68096.0, 63744.0, 72192.0, 105472.0, 119296.0, 105472.0, 98816.0, 56320.0, 59904.0, 59904.0, 72192.0, 92672.0, 72192.0, 68096.0, 63744.0, 76800.0, 56320.0, 49664.0, 59904.0, 63744.0, 52992.0, 59904.0, 56320.0, 46592.0, 32128.0, 24960.0, 34304.0, 38656.0, 41216.0, 41216.0, 34304.0, 52992.0, 36352.0, 46592.0, 49664.0, 49664.0, 56320.0, 56320.0, 38656.0, 41216.0, 43776.0, 30208.0, 30208.0, 30208.0, 92672.0, 184320.0, 144384.0, 144384.0, 112128.0, 81920.0, 68096.0, 87040.0, 119296.0, 112128.0, 135168.0, 162816.0, 126976.0, 126976.0, 87040.0, 98816.0, 63744.0, 196608.0, 196608.0, 92672.0, 68096.0, 59904.0, 68096.0, 63744.0, 72192.0, 59904.0, 63744.0, 46592.0, 52992.0, 36352.0, 46592.0, 41216.0, 36352.0, 34304.0, 49664.0, 38656.0, 52992.0, 56320.0, 43776.0, 36352.0, 52992.0, 56320.0, 49664.0, 34304.0, 36352.0, 28288.0, 24960.0, 32128.0, 46592.0, 38656.0, 36352.0, 30208.0, 36352.0, 30208.0, 24960.0, 28288.0, 34304.0, 43776.0, 36352.0, 32128.0, 26624.0, 32128.0, 28288.0, 24960.0, 24960.0, 46592.0, 63744.0, 72192.0, 87040.0, 76800.0, 144384.0, 126976.0, 112128.0, 92672.0, 59904.0, 56320.0, 56320.0, 56320.0, 43776.0, 36352.0, 59904.0, 63744.0, 76800.0, 49664.0, 46592.0, 46592.0, 43776.0, 46592.0, 52992.0, 63744.0, 46592.0, 34304.0, 56320.0, 43776.0, 63744.0, 32128.0, 43776.0, 34304.0, 56320.0, 68096.0, 56320.0, 98816.0, 153600.0, 105472.0, 92672.0, 59904.0, 87040.0, 18304.0, 20736.0, 20736.0, 24960.0, 20736.0, 22016.0, 22016.0, 24960.0, 28288.0, 28288.0, 34304.0, 32128.0, 23424.0, 28288.0, 26624.0, 22016.0, 23424.0, 20736.0, 28288.0, 26624.0, 26624.0, 34304.0, 32128.0, 26624.0, 18304.0, 19456.0, 28288.0, 24960.0, 22016.0, 22016.0, 20736.0, 20736.0, 26624.0, 32128.0, 41216.0, 32128.0, 24960.0, 28288.0, 28288.0, 24960.0, 30208.0, 36352.0, 24960.0, 30208.0, 32128.0, 30208.0, 30208.0, 32128.0, 36352.0, 38656.0, 30208.0, 28288.0, 32128.0, 24960.0, 24960.0, 30208.0, 28288.0, 32128.0, 30208.0, 28288.0, 34304.0, 30208.0, 30208.0, 32128.0, 26624.0, 32128.0, 28288.0, 26624.0, 30208.0, 30208.0, 32128.0, 32128.0, 26624.0, 26624.0, 23424.0, 22016.0, 24960.0, 30208.0, 30208.0, 34304.0, 41216.0, 32128.0, 41216.0, 43776.0, 38656.0, 38656.0, 34304.0, 32128.0, 32128.0, 36352.0, 36352.0, 34304.0, 880640.0, 24248320.0, 3276800.0, 999424.0, 471040.0, 647168.0, 501760.0, 880640.0, 827392.0, 688128.0, 471040.0, 366592.0, 444416.0, 729088.0, 237568.0, 76800.0, 38656.0, 38656.0, 46592.0, 81920.0, 49664.0, 391168.0, 305152.0, 162816.0, 144384.0, 112128.0, 87040.0, 98816.0, 81920.0, 105472.0, 92672.0, 76800.0, 105472.0, 223232.0, 135168.0, 126976.0, 252928.0, 162816.0, 196608.0, 144384.0, 144384.0, 119296.0, 92672.0, 72192.0, 135168.0, 153600.0, 68096.0, 105472.0, 144384.0, 174080.0, 184320.0, 162816.0, 153600.0, 81920.0, 126976.0, 135168.0, 252928.0, 391168.0, 305152.0, 153600.0, 153600.0, 98816.0, 174080.0, 87040.0, 105472.0, 105472.0, 105472.0, 112128.0, 68096.0, 98816.0, 135168.0, 144384.0, 135168.0, 126976.0, 135168.0, 153600.0, 119296.0, 76800.0, 135168.0, 87040.0, 112128.0, 144384.0, 76800.0, 56320.0, 98816.0, 135168.0, 112128.0, 135168.0, 98816.0, 119296.0, 252928.0, 366592.0, 184320.0, 184320.0, 174080.0, 223232.0, 119296.0, 196608.0, 184320.0, 209920.0, 162816.0, 196608.0, 72192.0, 105472.0, 63744.0, 87040.0, 162816.0, 105472.0, 153600.0, 119296.0, 135168.0, 87040.0, 76800.0, 105472.0, 68096.0, 126976.0, 119296.0, 126976.0, 153600.0, 126976.0, 105472.0, 126976.0, 72192.0, 87040.0, 87040.0, 81920.0, 98816.0, 126976.0, 81920.0, 41216.0, 41216.0, 59904.0, 56320.0, 43776.0, 68096.0, 119296.0, 81920.0, 59904.0, 59904.0, 81920.0, 135168.0, 119296.0, 68096.0, 59904.0, 56320.0, 52992.0, 36352.0, 43776.0, 87040.0, 56320.0, 184320.0, 112128.0, 98816.0, 98816.0, 144384.0, 87040.0, 87040.0, 72192.0, 63744.0, 38656.0, 34304.0, 46592.0, 46592.0, 49664.0, 30208.0, 46592.0, 49664.0, 41216.0, 46592.0, 43776.0, 34304.0, 32128.0, 34304.0, 30208.0, 52992.0, 43776.0, 59904.0, 59904.0, 68096.0, 43776.0, 56320.0, 34304.0, 52992.0, 38656.0, 52992.0, 52992.0, 59904.0, 63744.0, 56320.0, 56320.0, 63744.0, 59904.0, 43776.0, 36352.0, 38656.0, 46592.0, 52992.0, 38656.0, 28288.0, 32128.0, 36352.0, 46592.0, 52992.0, 38656.0, 36352.0, 28288.0, 38656.0, 49664.0, 36352.0, 59904.0, 98816.0, 126976.0, 119296.0, 126976.0, 105472.0, 92672.0, 68096.0, 68096.0, 92672.0, 68096.0, 98816.0, 144384.0, 119296.0, 126976.0, 105472.0, 72192.0, 49664.0, 32128.0, 41216.0, 38656.0, 49664.0, 46592.0, 49664.0, 52992.0, 46592.0, 43776.0, 38656.0, 38656.0, 56320.0, 46592.0, 41216.0, 56320.0, 72192.0, 56320.0, 49664.0, 63744.0, 41216.0, 56320.0, 52992.0, 36352.0, 46592.0, 41216.0, 28288.0, 26624.0, 38656.0, 24960.0, 24960.0, 28288.0, 36352.0, 36352.0, 38656.0, 26624.0, 30208.0, 24960.0, 30208.0, 28288.0, 28288.0, 46592.0, 38656.0, 63744.0, 72192.0, 46592.0, 56320.0, 36352.0, 32128.0, 23424.0, 41216.0, 34304.0, 26624.0, 34304.0, 26624.0, 76800.0, 286720.0, 196608.0, 126976.0, 87040.0, 92672.0, 76800.0, 105472.0, 92672.0, 52992.0, 68096.0, 56320.0, 76800.0, 92672.0, 76800.0, 72192.0, 72192.0, 81920.0, 56320.0, 98816.0, 81920.0, 268288.0, 144384.0, 162816.0, 105472.0, 162816.0, 174080.0, 126976.0, 112128.0, 87040.0, 81920.0, 98816.0, 16128.0, 20736.0, 24960.0, 22016.0, 28288.0, 20736.0, 20736.0, 18304.0, 28288.0, 63744.0, 68096.0, 72192.0, 17152.0, 22016.0, 18304.0, 19456.0, 20736.0, 18304.0, 20736.0, 20736.0, 20736.0, 24960.0, 22016.0, 20736.0, 19456.0, 14272.0, 16128.0, 16128.0, 15168.0, 16128.0, 11840.0, 52992.0, 49664.0, 43776.0, 38656.0, 52992.0, 76800.0, 63744.0, 63744.0, 76800.0, 92672.0, 98816.0, 119296.0, 112128.0, 119296.0, 87040.0, 98816.0, 76800.0, 22016.0, 26624.0, 24960.0, 36352.0, 20736.0, 30208.0, 36352.0, 32128.0, 41216.0, 34304.0, 41216.0, 49664.0, 36352.0, 49664.0, 46592.0, 34304.0, 46592.0, 63744.0, 59904.0, 41216.0, 43776.0, 49664.0, 49664.0, 52992.0, 36352.0, 68096.0, 81920.0, 92672.0, 56320.0, 49664.0, 52992.0, 52992.0, 63744.0, 41216.0, 46592.0, 68096.0, 63744.0, 68096.0, 56320.0, 59904.0, 49664.0, 52992.0, 49664.0, 46592.0, 46592.0, 49664.0, 81920.0, 41216.0, 49664.0, 43776.0, 41216.0, 63744.0, 36352.0, 34304.0, 43776.0, 43776.0, 41216.0, 63744.0, 38656.0, 34304.0, 32128.0, 32128.0, 36352.0, 30208.0, 43776.0, 126976.0, 119296.0, 92672.0, 92672.0, 43776.0, 59904.0, 46592.0, 56320.0, 98816.0, 68096.0, 59904.0, 68096.0, 87040.0, 252928.0, 286720.0, 174080.0, 223232.0, 209920.0, 286720.0, 237568.0, 135168.0, 135168.0, 112128.0, 174080.0, 135168.0, 105472.0, 119296.0, 126976.0, 112128.0, 126976.0, 112128.0, 112128.0, 162816.0, 126976.0, 92672.0, 126976.0, 126976.0, 126976.0, 174080.0, 135168.0, 119296.0, 112128.0, 105472.0, 144384.0, 112128.0, 92672.0, 26624.0, 28288.0, 22016.0, 24960.0, 18304.0, 24960.0, 26624.0, 26624.0, 24960.0, 32128.0, 34304.0, 26624.0, 26624.0, 46592.0, 28288.0, 30208.0, 30208.0, 28288.0, 30208.0, 28288.0, 32128.0, 32128.0, 24960.0, 22016.0, 28288.0, 23424.0, 22016.0, 34304.0, 23424.0, 32128.0, 34304.0, 24960.0, 30208.0, 26624.0, 34304.0, 34304.0, 28288.0, 26624.0, 36352.0, 34304.0, 41216.0, 41216.0, 36352.0, 26624.0, 41216.0, 237568.0, 153600.0, 49664.0, 56320.0, 63744.0, 38656.0, 68096.0, 68096.0, 56320.0, 41216.0, 52992.0, 41216.0, 41216.0, 52992.0, 49664.0, 43776.0, 49664.0, 49664.0, 63744.0, 46592.0, 72192.0, 68096.0, 49664.0, 46592.0, 68096.0, 38656.0, 49664.0, 43776.0, 56320.0, 46592.0, 59904.0, 52992.0, 63744.0, 41216.0, 41216.0, 41216.0, 56320.0, 52992.0, 43776.0, 46592.0, 56320.0, 36352.0, 41216.0, 49664.0, 72192.0, 34304.0, 63744.0, 68096.0, 59904.0, 59904.0, 59904.0, 72192.0, 52992.0, 46592.0, 63744.0, 72192.0, 46592.0, 38656.0, 46592.0, 36352.0, 49664.0, 38656.0, 34304.0, 32128.0, 41216.0, 28288.0, 26624.0, 24960.0, 28288.0, 32128.0, 23424.0, 32128.0, 32128.0, 34304.0, 34304.0]","[10.9375, 8.9375, 9.0625, 9.125, 9.0625, 9.0, 9.0625, 9.3125, 9.125, 9.125, 9.0625, 9.0, 9.25, 9.5, 9.125, 9.3125, 9.125, 9.125, 10.0, 10.0625, 9.0, 9.1875, 9.25, 9.0, 9.125, 9.1875, 9.5625, 9.3125, 9.25, 9.1875, 9.4375, 9.25, 9.3125, 9.25, 9.1875, 9.3125, 9.4375, 9.5, 9.3125, 9.75, 9.4375, 9.4375, 9.3125, 9.375, 9.5625, 9.375, 9.1875, 9.1875, 9.1875, 9.375, 9.1875, 9.3125, 9.1875, 9.1875, 9.25, 9.3125, 9.1875, 9.3125, 9.375, 9.25, 10.0, 9.75, 9.5, 9.625, 9.625, 9.5, 9.625, 9.5, 9.3125, 9.3125, 9.4375, 9.4375, 9.4375, 9.375, 9.875, 9.4375, 9.5625, 9.5625, 9.5625, 9.875, 9.9375, 10.1875, 10.375, 9.9375, 10.0625, 10.0, 9.75, 9.5625, 9.5625, 9.9375, 9.875, 9.5625, 10.125, 9.875, 9.9375, 10.125, 10.0, 9.5, 9.5, 9.875, 9.9375, 10.5, 10.375, 10.5, 10.0625, 10.4375, 10.3125, 10.0625, 10.375, 10.5625, 10.375, 10.25, 10.0625, 10.0625, 10.3125, 10.8125, 11.5, 10.0, 9.75, 10.375, 9.9375, 10.1875, 10.375, 10.625, 11.3125, 10.9375, 10.8125, 10.5625, 11.5625, 11.9375, 11.875, 11.8125, 11.8125, 11.8125, 11.6875, 11.4375, 11.625, 9.8125, 9.5, 10.25, 10.5625, 10.3125, 10.5625, 10.8125, 10.9375, 11.1875, 10.875, 11.125, 11.375, 10.8125, 10.125, 10.5625, 10.6875, 10.8125, 11.0, 10.875, 10.625, 11.625, 11.0625, 11.125, 11.5, 11.6875, 10.125, 9.875, 10.0625, 10.5625, 10.6875, 10.3125, 10.5, 10.9375, 10.375, 10.125, 10.1875, 10.0625, 10.0625, 10.125, 10.125, 10.0, 10.0625, 9.875, 9.6875, 10.125, 10.5625, 10.0625, 9.8125, 9.8125, 9.8125, 9.875, 10.5, 10.6875, 10.4375, 10.3125, 10.3125, 10.625, 10.8125, 10.25, 9.6875, 10.125, 10.5625, 10.4375, 10.6875, 10.4375, 11.0625, 11.3125, 10.8125, 9.5, 9.8125, 10.4375, 10.5625, 10.375, 10.6875, 10.125, 10.25, 10.625, 10.6875, 10.8125, 11.4375, 12.0625, 12.75, 12.625, 11.4375, 11.375, 10.3125, 10.4375, 10.0625, 10.25, 9.9375, 9.9375, 9.5625, 9.5625, 9.8125, 10.5, 10.375, 10.0625, 10.25, 10.5, 10.875, 10.875, 10.3125, 10.1875, 10.1875, 10.5, 10.875, 10.0625, 11.0625, 10.9375, 10.625, 10.75, 11.0625, 10.5, 10.5, 10.5, 10.375, 10.5, 10.75, 10.375, 10.5, 9.875, 9.75, 10.1875, 10.125, 10.125, 10.3125, 10.0625, 10.0625, 10.125, 10.0, 9.8125, 10.3125, 10.0, 11.8125, 11.0, 10.0625, 10.3125, 10.1875, 10.625, 10.3125, 9.9375, 10.0625, 11.5, 10.6875, 11.5, 11.375, 11.0625, 10.4375, 11.0, 10.375, 10.0625, 11.5, 11.375, 10.5, 10.6875, 11.0, 11.3125, 11.1875, 11.3125, 11.375, 10.8125, 10.875, 11.6875, 11.0625, 10.875, 11.25, 10.5625, 10.625, 10.9375, 10.5625, 10.0625, 10.25, 10.1875, 10.5625, 11.0625, 10.5625, 10.5, 10.3125, 10.4375, 10.5625, 10.8125, 10.4375, 10.5625, 10.5625, 10.75, 10.6875, 10.625, 10.8125, 10.875, 11.125, 10.5, 10.6875, 11.0, 11.0625, 10.25, 11.0625, 11.25, 11.1875, 10.875, 10.9375, 10.75, 10.0625, 10.3125, 11.0, 11.0, 10.375, 10.8125, 10.5, 10.4375, 10.4375, 11.0625, 10.625, 11.375, 12.0625, 11.6875, 11.875, 11.875, 11.8125, 11.9375, 11.5, 11.5625, 11.625, 12.3125, 11.9375, 11.625, 12.0625, 11.5625, 12.125, 12.125, 11.875, 11.4375, 11.5625, 11.5, 12.375, 12.625, 12.6875, 12.9375, 11.8125, 12.0, 11.6875, 11.75, 12.3125, 12.375, 11.9375, 10.75, 11.125, 11.6875, 12.0, 12.0625, 11.25, 11.0, 11.0625, 11.25, 10.625, 11.625, 10.8125, 11.8125, 11.625, 11.5625, 12.0625, 12.9375, 12.9375, 12.875, 11.3125, 11.0, 10.8125, 10.75, 10.4375, 11.25, 11.5, 11.6875, 11.75, 11.75, 12.125, 12.125, 11.6875, 12.3125, 11.6875, 11.1875, 10.6875, 10.5, 10.625, 10.8125, 10.9375, 10.75, 12.3125, 17.25, 14.3125, 13.125, 13.0, 12.375, 12.375, 12.875, 13.5, 13.375, 13.8125, 13.1875, 12.9375, 12.4375, 12.3125, 12.375, 12.625, 12.3125, 12.0625, 11.375, 11.8125, 12.4375, 12.3125, 11.5625, 11.875, 12.4375, 11.4375, 11.9375, 13.0625, 10.8125, 12.0625, 11.4375, 11.75, 12.1875, 12.625, 12.75, 13.4375, 13.5625, 12.4375, 12.375, 13.0, 13.625, 13.375, 12.5625, 11.9375, 11.875, 11.75, 11.625, 11.875, 12.0625, 12.0625, 13.0625, 13.1875, 12.6875, 11.875, 11.5625, 12.25, 12.6875, 12.375, 13.1875, 12.1875, 12.0625, 11.9375, 11.75, 12.9375, 13.25, 12.625, 13.5, 13.5, 13.6875, 13.25, 12.875, 13.1875, 13.1875, 13.0625, 13.25, 13.375, 13.1875, 13.5625, 13.5625, 12.625, 12.75, 13.125, 12.1875, 11.8125, 12.0, 12.1875, 11.75, 13.125, 12.8125, 12.125, 11.8125, 11.625, 12.125, 13.4375, 12.8125, 12.75, 12.25, 11.6875, 11.6875, 11.9375, 12.5625, 12.5, 12.5, 12.625, 12.6875, 13.0625, 13.0, 14.0, 13.3125, 12.5, 12.8125, 12.8125, 13.125, 13.5, 13.5, 14.0625, 13.875, 12.0625, 12.3125, 12.6875, 11.9375, 11.75, 12.8125, 13.625, 13.8125, 13.5625, 13.4375, 13.625, 12.875, 12.8125, 12.75, 12.625, 12.3125, 12.8125, 12.875, 12.9375, 12.75, 12.0625, 12.5, 12.0625, 12.1875, 12.3125, 9.9375, 10.0, 11.25, 11.3125, 11.3125, 11.6875, 11.75, 11.375, 11.0, 11.375, 11.0, 10.5625, 10.75, 10.6875, 10.375, 10.6875, 11.125, 11.25, 11.0625, 11.0, 10.875, 11.3125, 10.8125, 11.0625, 10.5, 11.0, 11.5, 12.1875, 11.6875, 12.125, 12.125, 11.5, 12.0, 12.3125, 12.5, 12.75, 13.3125, 13.625, 12.875, 13.5625, 13.0625, 12.5, 12.75, 12.6875, 12.125, 12.125, 12.4375, 12.3125, 11.625, 11.8125, 11.6875, 11.0625, 11.4375, 12.25, 12.125, 12.75, 12.375, 12.125, 11.4375, 11.625, 11.8125, 12.6875, 12.5625, 13.625, 13.0, 13.25, 12.875, 12.125, 12.5625, 11.75, 11.75, 12.4375, 12.75, 11.875, 12.8125, 12.5625, 12.6875, 13.0, 12.9375, 12.1875, 12.0, 11.8125, 11.625, 12.5625, 14.5625, 14.1875, 14.5625, 13.75, 12.875, 13.4375, 14.125, 13.875, 13.8125, 12.75, 12.8125, 12.875, 13.25, 13.1875, 12.625, 12.0, 12.5, 12.4375, 11.25, 11.5625, 12.1875, 12.25, 12.375, 14.125, 14.6875, 15.4375, 16.25, 13.625, 12.5, 14.625, 14.5625, 14.375, 13.1875, 14.25, 13.0, 12.9375, 12.4375, 12.0625, 12.125, 12.375, 13.125, 14.1875, 14.1875, 14.25, 13.875, 13.0, 12.9375, 13.0, 13.5, 13.125, 13.125, 13.1875, 13.1875, 13.375, 13.5, 12.875, 12.0, 12.1875, 11.75, 12.1875, 12.1875, 12.25, 12.5625, 11.875, 11.75, 12.3125, 12.1875, 12.25, 12.0625, 12.25, 13.4375, 14.6875, 14.0625, 13.6875, 13.6875, 13.25, 13.3125, 13.125, 13.125, 13.4375, 13.5625, 13.625, 14.625, 14.5, 14.25, 14.3125, 13.6875, 13.6875, 13.8125, 14.3125, 14.25, 13.125, 13.75, 13.6875, 14.125, 13.3125, 13.625, 13.125, 13.1875, 13.5, 14.0, 14.0625, 13.5, 13.5, 12.8125, 13.0, 12.9375, 13.4375, 13.875, 13.0, 12.875, 12.9375, 13.1875, 12.3125, 12.1875, 13.0625, 13.4375, 12.875, 13.3125, 12.875, 12.5625, 11.625, 11.625, 12.3125, 12.8125, 13.0625, 12.875, 12.3125, 12.9375, 12.1875, 12.3125, 12.5, 12.9375, 13.1875, 13.0625, 12.625, 12.3125, 12.5625, 11.8125, 11.5625, 11.75, 15.375, 16.75, 16.875, 16.25, 15.4375, 15.0625, 15.0625, 15.5, 15.9375, 15.6875, 15.9375, 16.125, 15.625, 15.375, 15.3125, 15.6875, 15.0625, 15.9375, 15.9375, 15.5, 14.9375, 15.0625, 14.875, 14.25, 15.875, 15.5625, 15.25, 15.0, 13.5, 13.25, 13.5, 13.4375, 13.25, 13.1875, 14.3125, 14.1875, 13.6875, 14.4375, 14.0625, 13.5, 14.5, 14.8125, 14.5, 13.75, 13.0625, 13.0625, 12.1875, 12.4375, 13.125, 13.125, 13.0, 12.5625, 12.625, 12.5625, 12.625, 12.8125, 12.875, 13.5625, 13.125, 13.0625, 12.4375, 13.25, 12.5625, 12.0, 12.1875, 13.625, 14.5625, 15.25, 15.0625, 15.0, 16.0, 15.6875, 15.3125, 14.375, 14.0, 13.75, 13.5, 13.6875, 13.6875, 13.0625, 13.6875, 14.25, 13.75, 13.125, 12.5625, 12.25, 12.8125, 12.8125, 13.3125, 13.9375, 13.0625, 12.625, 13.25, 13.625, 14.6875, 13.25, 13.4375, 13.0, 14.0, 14.5625, 14.375, 16.25, 17.125, 16.5, 16.625, 15.5625, 16.375, 11.0, 10.75, 10.875, 11.625, 11.1875, 10.875, 11.0, 11.375, 11.4375, 11.6875, 11.5625, 11.3125, 10.875, 11.3125, 11.1875, 10.8125, 10.9375, 10.5625, 11.4375, 11.4375, 11.25, 11.875, 11.625, 11.25, 10.5, 11.0625, 11.625, 11.875, 11.625, 11.4375, 11.5, 11.6875, 11.875, 12.5625, 13.0625, 12.8125, 12.125, 12.25, 12.1875, 12.125, 12.0625, 12.0, 11.4375, 11.625, 11.9375, 11.8125, 12.375, 12.5, 12.9375, 12.8125, 12.5625, 12.375, 12.5625, 11.9375, 11.8125, 12.625, 12.125, 12.375, 12.375, 12.375, 12.4375, 12.0, 12.0625, 12.125, 12.3125, 12.3125, 12.0625, 11.9375, 12.3125, 12.0, 12.4375, 11.9375, 11.6875, 11.8125, 