last_val_loss,dataset,ul2,causal_denoisers,noncausal_masking,causal_divider,s_divider,r_divider,x_divider,randomize_denoiser_settings,randomize_mask_width,no_special_tokens,alternate_denoisers,progressive_tasks,model_scale,depth,width,num_params,num_non_embedding_params,num_heads,linear_value,seed,run_num,max_epochs,max_steps,max_tokens,max_time_seconds,gpu_capacity_scalar,train_loss_causal,train_pplx_causal,train_acc_causal,train_loss_s,train_pplx_s,train_loss_r,train_pplx_r,train_loss_x,train_pplx_x,train_acc_x_causal,train_acc_r_causal,train_acc_s_causal,train_acc_x_masked,train_acc_r_masked,train_acc_s_masked,val_loss_causal,val_pplx_causal,val_acc_causal,val_loss_s,val_pplx_s,val_loss_r,val_pplx_r,val_loss_x,val_pplx_x,grad_norm,cumulative_time,tokens_seen,epoch,batch_size,seq_length,learning_rate,weight_decay
2.8697917461395264,fineweb,true,true,false,1000.0,1000.0,1.0,1.0,true,true,true,true,false,16.80486971279296,35,1664,773187619,605755939,1,false,1600,1,1.0,1000000000,1000000000000,1000000000,1.9,"[10.9375, 7.78125, 7.0, 6.5625, 6.65625, 6.3125, 6.46875, 6.1875, 6.15625, 6.3125, 6.28125, 6.125, 6.1875, 5.90625, 6.0625, 5.78125, 5.78125, 5.75, 5.71875, 5.84375, 5.78125, 5.5625, 5.5625, 5.5, 5.625, 5.5, 5.5625, 5.53125, 5.5625, 5.25, 5.5, 5.46875, 5.21875, 5.4375, 5.28125, 5.375, 5.25, 5.25, 5.21875, 5.21875, 5.21875, 5.0625, 5.28125, 5.03125, 5.03125, 5.09375, 5.1875, 5.0, 5.125, 4.96875, 5.0625, 5.09375, 5.15625, 5.03125, 4.96875, 4.9375, 4.9375, 5.0, 4.84375, 4.8125, 5.0625, 5.0625, 4.9375, 5.0625, 5.03125, 4.8125, 4.78125, 4.8125, 5.03125, 4.78125, 4.59375, 4.65625, 4.6875, 4.78125, 4.6875, 4.75, 4.6875, 4.625, 4.71875, 4.75, 4.46875, 4.71875, 4.84375, 4.65625, 4.6875, 4.625, 4.4375, 4.6875, 4.46875, 4.5, 4.5, 4.65625, 4.34375, 4.78125, 4.53125, 4.625, 4.53125, 4.78125, 4.59375, 4.375, 4.59375, 4.4375, 4.40625, 4.375, 4.375, 4.40625, 4.25, 4.34375, 4.4375, 4.3125, 4.28125, 4.1875, 4.3125, 4.21875, 4.1875, 4.28125, 4.25, 4.125, 4.28125, 4.21875, 4.125, 4.21875, 4.1875, 4.09375, 4.15625, 4.25, 4.09375, 4.0625, 4.21875, 4.28125, 4.0625, 4.15625, 3.953125, 4.21875, 4.0, 4.3125, 4.125, 4.125, 3.984375, 4.09375, 4.09375, 3.90625, 3.96875, 3.875, 3.890625, 3.984375, 4.09375, 3.9375, 3.984375, 4.0, 4.03125, 3.859375, 4.03125, 3.859375, 3.984375, 3.828125, 4.03125, 3.953125, 4.0, 3.921875, 4.0, 3.9375, 3.90625, 3.78125, 3.828125, 3.84375, 3.875, 3.734375, 3.8125, 3.8125, 3.703125, 3.875, 4.03125, 3.796875, 3.828125, 3.6875, 3.875, 3.875, 3.84375, 3.9375, 3.75, 3.828125, 3.921875, 3.6875, 3.78125, 3.953125, 4.03125, 3.875, 3.96875, 3.90625, 3.625, 3.75, 3.640625, 3.84375, 3.8125, 3.84375, 3.796875, 3.84375, 3.6875, 3.6875, 3.84375, 3.8125, 3.765625, 3.609375, 3.734375, 3.6875, 3.71875, 3.84375, 3.640625, 3.6875, 3.796875, 3.859375, 3.671875, 3.6875, 3.71875, 3.75, 3.90625, 3.671875, 3.765625, 3.640625, 3.6875, 3.640625, 3.734375, 3.65625, 3.703125, 3.625, 3.6875, 3.703125, 3.71875, 3.65625, 3.78125, 3.53125, 3.625, 3.59375, 3.6875, 3.65625, 3.578125, 3.546875, 3.640625, 3.40625, 3.609375, 3.546875, 3.421875, 3.5625, 3.53125, 3.765625, 3.734375, 3.484375, 3.59375, 3.59375, 3.609375, 3.65625, 3.640625, 3.484375, 3.609375, 3.53125, 3.671875, 3.5625, 3.5625, 3.65625, 3.640625, 3.515625, 3.625, 3.53125, 3.625, 3.515625, 3.5625, 3.609375, 3.640625, 3.328125, 3.484375, 3.640625, 3.375, 3.546875, 3.59375, 3.640625, 3.65625, 3.5, 3.609375, 3.53125, 3.609375, 3.59375, 3.515625, 3.53125, 3.609375, 3.609375, 3.625, 3.515625, 3.59375, 3.421875, 3.453125, 3.484375, 3.59375, 3.5, 3.640625, 3.515625, 3.46875, 3.53125, 3.609375, 3.3125, 3.40625, 3.53125, 3.484375, 3.4375, 3.53125, 3.578125, 3.453125, 3.546875, 3.40625, 3.578125, 3.5625, 3.453125, 3.375, 3.53125, 3.5, 3.484375, 3.46875, 3.40625, 3.4375, 3.453125, 3.390625, 3.359375, 3.625, 3.59375, 3.46875, 3.515625, 3.453125, 3.328125, 3.53125, 3.578125, 3.59375, 3.390625, 3.515625, 3.4375, 3.34375, 3.515625, 3.46875, 3.4375, 3.40625, 3.453125, 3.546875, 3.203125, 3.515625, 3.5625, 3.359375, 3.515625, 3.34375, 3.375, 3.578125, 3.4375, 3.390625, 3.3125, 3.484375, 3.65625, 3.5, 3.25, 3.671875, 3.328125, 3.40625, 3.515625, 3.34375, 3.484375, 3.5, 3.46875, 3.359375, 3.390625, 3.46875, 3.46875, 3.328125, 3.53125, 3.3125, 3.359375, 3.4375, 3.328125, 3.53125, 3.53125, 3.203125, 3.375, 3.234375, 3.4375, 3.453125, 3.390625, 3.328125, 3.546875, 3.484375, 3.5, 3.25, 3.453125, 3.28125, 3.40625, 3.484375, 3.34375, 3.46875, 3.359375, 3.3125, 3.421875, 3.359375, 3.328125, 3.46875, 3.40625, 3.390625, 3.390625, 3.21875, 3.203125, 3.59375, 3.40625, 3.390625, 3.1875, 3.4375, 3.3125, 3.296875, 3.421875, 3.171875, 3.34375, 3.359375, 3.390625, 3.296875, 3.328125, 3.34375, 3.34375, 3.34375, 3.0625, 3.3125, 3.28125, 3.390625, 3.3125, 3.375, 3.46875, 3.328125, 3.4375, 3.390625, 3.3125, 3.453125, 3.3125, 3.234375, 3.421875, 3.375, 3.375, 3.296875, 3.328125, 3.234375, 3.265625, 3.4375, 3.3125, 3.25, 3.09375, 3.140625, 3.390625, 3.421875, 3.546875, 3.296875, 3.453125, 3.359375, 3.296875, 3.1875, 3.40625, 3.15625, 3.203125, 3.4375, 3.21875, 3.328125, 3.375, 3.359375, 3.390625, 3.3125, 3.359375, 3.265625, 3.296875, 3.171875, 3.3125, 3.3125, 3.328125, 3.484375, 3.46875, 3.3125, 3.15625, 3.1875, 3.375, 3.203125, 3.28125, 3.28125, 3.375, 3.453125, 3.328125, 3.265625, 3.234375, 3.28125, 3.359375, 3.359375, 3.25, 3.40625, 3.265625, 3.328125, 3.1875, 3.25, 3.375, 3.265625, 3.28125, 3.359375, 3.3125, 3.34375, 3.203125, 3.40625, 3.359375, 3.328125, 3.15625, 3.28125, 3.125, 3.296875, 3.234375, 3.234375, 3.34375, 3.28125, 3.34375, 3.28125, 3.28125, 3.296875, 3.421875, 3.328125, 3.1875, 3.375, 3.34375, 3.46875, 3.34375, 3.296875, 3.140625, 3.1875, 3.21875, 3.5, 3.390625, 3.46875, 3.3125, 3.109375, 3.09375, 3.3125, 3.265625, 3.15625, 3.25, 3.28125, 3.34375, 3.171875, 3.203125, 3.140625, 3.140625, 3.265625, 3.1875, 3.1875, 3.28125, 3.109375, 3.109375, 3.25, 3.203125, 3.25, 3.25, 3.234375, 3.203125, 3.203125, 3.1875, 3.265625, 3.078125, 3.3125, 3.171875, 3.15625, 3.21875, 3.25, 3.03125, 3.21875, 3.296875, 3.140625, 3.15625, 3.28125, 3.140625, 3.109375, 3.09375, 3.265625, 3.3125, 3.28125, 3.34375, 3.15625, 2.953125, 3.25, 3.296875, 3.078125, 3.125, 3.109375, 2.96875, 3.1875, 3.171875, 3.21875, 3.0625, 3.265625, 3.234375, 3.171875, 3.125, 3.265625, 3.328125, 3.34375, 3.21875, 3.125, 3.03125, 3.34375, 3.171875, 3.1875, 3.21875, 3.265625, 3.28125, 3.234375, 3.28125, 3.28125, 3.296875, 3.15625, 3.125, 3.296875, 3.375, 3.140625, 3.140625, 3.296875, 3.109375, 3.296875, 3.078125, 3.3125, 3.3125, 3.21875, 3.265625, 3.140625, 3.15625, 3.265625, 3.03125, 3.125, 3.171875, 3.140625, 3.078125, 3.25, 3.1875, 3.140625, 3.1875, 3.171875, 3.234375, 3.265625, 3.25, 3.171875, 3.234375, 3.28125, 3.28125, 3.28125, 3.0, 3.234375, 3.078125, 3.109375, 3.203125, 3.265625, 3.09375, 3.265625, 3.140625, 3.09375, 3.078125, 3.1875, 3.234375, 3.25, 3.34375, 3.15625, 3.15625, 3.125, 3.09375, 3.09375, 3.125, 3.28125, 3.125, 3.046875, 3.125, 3.0625, 3.375, 3.0625, 3.140625, 3.078125, 3.125, 3.125, 3.15625, 3.109375, 3.21875, 3.1875, 3.15625, 3.140625, 3.109375, 3.125, 3.25, 3.1875, 3.078125, 3.265625, 3.09375, 3.1875, 3.25, 3.171875, 3.0, 3.21875, 3.234375, 3.03125, 3.15625, 3.140625, 3.140625, 3.140625, 3.171875, 3.0, 3.078125, 3.234375, 3.046875, 2.984375, 3.1875, 3.171875, 3.0, 3.28125, 3.1875, 3.25, 3.1875, 3.25, 3.03125, 3.15625, 3.21875, 2.8125, 3.0625, 3.140625, 3.03125, 3.109375, 3.21875, 3.078125, 3.140625, 3.15625, 3.140625, 3.1875, 3.15625, 3.046875, 3.0625, 3.25, 3.171875, 3.140625, 3.21875, 3.140625, 3.109375, 3.03125, 3.0625, 3.265625, 3.09375, 3.09375, 3.109375, 2.984375, 3.296875, 3.109375, 3.046875, 2.9375, 3.078125, 3.171875, 3.09375, 3.0, 3.09375, 2.984375, 3.15625, 3.0625, 3.21875, 2.921875, 3.046875, 3.03125, 2.96875, 3.28125, 3.234375, 3.15625, 3.125, 3.078125, 3.0625, 3.078125, 3.15625, 2.921875, 3.046875, 2.984375, 3.0625, 3.234375, 3.125, 3.09375, 3.078125, 3.171875, 3.109375, 3.078125, 3.28125, 3.03125, 3.21875, 3.125, 2.96875, 3.0625, 3.203125, 3.078125, 3.078125, 3.109375, 3.125, 3.140625, 2.984375, 3.03125, 3.171875, 3.0625, 3.0625, 3.125, 2.9375, 3.0, 3.0625, 3.125, 3.296875, 3.046875, 3.09375, 3.09375, 3.171875, 3.09375, 3.15625, 3.0, 3.140625, 3.140625, 3.09375, 3.078125, 2.984375, 3.09375, 3.046875, 3.046875, 3.125, 3.15625, 3.171875, 3.046875, 3.046875, 3.34375, 3.125, 3.109375, 3.140625, 3.171875, 3.015625, 3.015625, 3.125, 3.046875, 3.171875, 2.953125, 3.03125, 3.078125, 3.109375, 2.953125, 2.84375, 3.109375, 3.0625, 3.125, 3.109375, 3.109375, 3.09375, 3.140625, 3.28125, 2.984375, 3.03125, 3.15625, 3.15625, 3.109375, 3.046875, 3.09375, 3.171875, 3.0625, 2.90625, 3.203125, 2.90625, 3.0625, 3.109375, 3.078125, 3.171875, 3.109375, 3.140625, 3.171875, 3.140625, 2.984375, 3.015625, 3.15625, 3.203125, 3.03125, 3.109375, 3.09375, 3.015625, 3.1875, 3.015625, 3.03125, 2.921875, 2.984375, 3.03125, 3.078125, 2.953125, 2.984375, 3.046875, 3.265625, 3.09375, 3.015625, 3.09375, 3.0625, 3.203125, 3.125, 3.078125, 3.0, 2.921875, 2.875, 3.015625, 2.8125, 3.203125, 3.140625, 3.015625, 3.0, 2.96875, 3.046875, 2.953125, 3.046875, 3.171875, 3.1875, 3.078125, 3.015625, 2.984375, 3.078125, 3.09375, 3.046875, 3.0625, 3.0625, 2.90625, 3.015625, 3.078125, 3.15625, 3.09375, 3.03125, 3.0625, 3.171875, 3.140625, 3.046875, 3.0, 3.09375, 3.109375, 2.96875, 3.03125, 3.03125, 3.140625, 2.9375, 2.921875, 3.171875, 3.0625, 3.171875, 3.046875, 3.03125, 3.078125, 3.0, 3.0, 3.203125, 2.984375, 3.09375, 3.140625, 2.984375, 3.0625, 2.9375, 3.171875, 3.0, 3.109375, 3.046875, 3.171875, 2.953125, 3.109375, 2.96875, 3.1875, 3.109375, 3.15625, 2.890625, 3.140625, 2.984375, 3.109375, 2.890625, 3.15625, 3.0, 2.921875, 3.0, 3.0, 2.9375, 2.9375, 3.0625, 2.953125, 3.09375, 3.125, 2.953125, 2.9375, 3.03125, 3.015625, 3.171875, 2.921875, 3.046875, 3.03125, 2.9375, 2.9375, 3.0, 2.984375, 3.1875, 3.09375, 3.03125, 3.0, 3.25, 3.078125, 3.03125, 3.046875, 3.15625, 2.984375, 3.046875, 3.203125, 3.078125, 2.90625, 2.984375, 2.9375, 2.90625, 2.859375, 2.953125, 3.015625, 3.140625, 3.015625, 3.078125, 3.09375, 3.0, 3.15625, 3.046875, 2.984375, 3.140625, 2.984375, 3.03125, 3.171875, 3.015625, 2.96875, 2.984375, 3.046875, 2.9375, 3.171875, 3.078125, 3.109375, 3.046875, 2.90625, 3.03125, 2.953125, 2.9375, 3.078125, 3.09375, 2.921875, 3.234375, 3.0625, 3.0625, 3.046875, 3.140625, 3.015625, 3.203125, 3.078125, 2.96875, 2.953125, 3.046875, 2.953125, 3.0, 3.125, 3.015625, 2.78125, 3.0, 3.0625, 3.046875, 3.015625, 3.140625, 3.140625, 3.0625, 2.984375, 2.859375, 2.90625, 2.921875, 3.109375, 3.0625, 3.09375, 2.984375, 3.140625, 2.859375, 3.046875, 2.953125, 3.09375, 3.015625, 2.921875, 2.84375, 2.953125, 2.90625, 2.984375, 2.984375, 2.953125, 2.984375, 3.03125, 3.015625, 2.90625, 3.109375, 3.140625, 3.140625, 2.859375, 2.890625, 2.953125, 2.859375, 2.9375, 2.875, 2.875, 3.03125, 3.03125, 3.03125, 2.984375, 2.96875, 2.984375, 2.890625, 3.046875, 3.078125, 3.078125, 2.9375, 3.0, 2.90625, 2.9375, 2.9375, 2.953125, 3.015625, 3.0, 2.796875, 3.03125, 2.96875, 3.140625, 2.984375, 2.953125, 2.84375, 3.125, 2.875, 3.234375, 2.9375, 2.875, 3.046875, 2.84375, 3.0625, 2.984375, 3.046875, 2.9375, 2.890625, 3.0, 2.9375, 2.984375, 3.140625, 3.015625, 2.984375, 3.0625, 2.828125, 2.859375, 2.953125, 2.921875, 2.875, 2.953125, 2.953125, 3.015625, 2.890625, 3.109375, 3.015625, 3.0, 3.0, 3.09375, 2.96875, 3.015625, 2.859375, 2.84375, 3.015625, 2.9375, 3.015625, 3.015625, 2.921875, 2.9375, 2.78125, 2.90625, 2.84375, 2.984375, 3.0625, 2.796875, 2.953125, 2.953125, 3.078125, 2.9375, 2.859375, 2.765625, 2.984375, 2.890625, 2.875, 2.84375, 2.9375, 2.8125, 2.859375, 3.0, 2.953125, 3.09375, 2.953125, 2.921875, 2.984375, 3.140625, 2.921875, 3.03125, 3.0625, 2.75, 2.9375, 2.875, 3.0, 3.109375, 3.109375, 2.828125, 3.125, 3.109375, 2.96875, 3.109375, 2.890625, 2.90625, 3.0625, 2.9375, 3.0625, 2.78125, 2.875, 3.125, 2.921875, 2.859375, 2.90625, 3.046875, 3.015625, 2.953125, 2.828125, 2.890625, 2.75, 2.765625, 2.8125, 2.96875, 2.84375, 2.875, 2.953125, 2.796875, 2.921875, 2.84375, 2.890625, 2.8125, 2.828125, 2.828125, 2.96875, 3.09375, 2.875, 2.9375, 2.9375, 2.796875, 3.078125, 2.859375, 2.96875, 2.9375, 3.078125, 2.890625, 3.046875, 3.09375, 3.046875, 2.953125, 3.046875, 2.96875, 3.046875, 3.0625, 3.03125, 2.96875, 2.84375, 3.109375, 3.140625, 3.09375, 2.921875, 2.921875, 2.875, 2.828125, 2.953125, 2.90625, 2.90625, 2.890625, 3.03125, 3.0625, 3.015625, 3.0625, 2.984375, 2.9375, 3.0625, 2.96875, 2.890625, 3.109375, 2.9375, 2.796875, 3.0625, 3.03125, 2.875, 3.25, 3.0, 2.859375, 2.984375, 3.0, 2.90625, 2.90625, 2.984375, 2.921875, 3.015625, 2.9375, 2.875, 2.984375, 2.953125, 2.984375, 3.09375, 2.8125, 3.03125, 2.890625, 2.859375, 2.90625, 2.9375, 2.796875, 2.984375, 3.0, 2.96875, 3.078125, 2.96875, 2.78125, 2.765625, 2.9375, 2.953125, 2.90625, 2.875, 3.125, 3.0625, 3.015625, 2.984375, 2.953125, 2.96875, 2.875, 2.96875, 2.84375, 3.109375, 2.765625, 2.8125, 2.859375, 2.875, 2.984375, 3.03125, 3.09375, 2.9375, 2.90625, 2.90625, 2.9375, 2.90625, 2.875, 2.921875, 2.8125, 3.140625, 3.046875, 3.03125, 3.109375, 3.015625, 2.828125, 3.0, 2.96875, 3.0, 2.921875, 3.0, 2.984375, 3.0625, 2.953125, 2.90625, 2.8125, 2.8125, 2.90625, 3.015625, 3.046875, 3.0, 2.9375, 2.90625, 2.953125, 3.046875, 2.84375, 2.953125, 2.921875, 3.015625, 2.96875, 3.09375, 2.90625, 2.9375, 2.84375, 2.6875, 3.0, 2.765625, 2.9375, 3.015625, 2.796875, 2.859375, 3.0, 2.953125, 2.9375, 2.921875, 2.90625, 2.921875, 2.796875, 2.875, 2.8125, 2.78125, 2.875, 2.90625, 2.953125, 2.96875, 2.984375, 2.921875, 3.0, 2.859375, 2.890625, 3.0625, 3.0625, 2.96875, 2.8125, 2.921875, 2.953125, 2.875, 2.9375, 2.921875, 3.015625, 2.84375, 2.796875, 3.0, 2.796875, 2.96875, 2.8125, 2.75, 2.890625, 2.953125, 2.703125, 2.859375, 2.8125, 2.953125, 2.84375, 2.671875, 2.8125, 3.03125, 2.8125, 3.0625, 2.9375, 2.890625, 2.953125, 2.796875, 2.90625, 2.828125, 2.8125, 2.65625, 3.125, 2.921875, 2.953125, 3.03125, 2.890625, 2.796875, 2.953125, 2.90625, 2.96875, 2.90625, 2.8125, 3.03125, 2.90625, 2.796875, 2.96875, 2.953125, 2.734375, 2.84375, 2.890625, 2.9375, 2.765625, 2.921875, 2.984375, 2.78125, 3.0, 2.921875, 2.921875, 2.984375, 2.8125, 3.0, 2.765625, 2.84375, 2.984375, 2.9375, 2.84375, 2.796875, 2.828125, 2.875, 2.9375, 2.78125, 2.9375, 2.828125, 2.859375, 2.78125, 2.96875, 2.6875, 2.671875, 2.765625, 2.90625, 2.8125, 2.875, 2.96875, 3.078125, 2.796875, 2.921875, 2.90625, 3.015625, 2.765625, 2.875, 2.953125, 2.765625, 2.859375, 2.71875, 2.921875, 3.0625, 2.90625, 2.875, 2.953125, 2.703125, 2.5625, 2.765625, 2.890625, 2.859375, 2.890625, 2.734375, 2.859375, 2.71875, 2.828125, 2.78125, 2.90625, 2.890625, 2.875, 2.75, 2.84375, 2.953125, 3.0, 2.875, 2.625, 2.984375, 2.875, 2.71875, 2.8125, 2.84375, 3.03125, 2.78125, 2.921875, 2.765625, 2.828125, 2.890625, 3.0625, 2.953125, 2.96875, 2.859375, 3.0625, 2.671875, 2.78125, 2.984375, 2.78125, 2.953125, 2.859375, 2.984375, 2.765625, 2.953125, 2.765625, 2.75, 2.90625, 2.875, 2.90625, 2.84375, 2.71875, 2.796875, 2.875, 2.921875, 2.703125, 2.765625, 2.734375, 2.875, 2.921875, 2.75, 2.71875, 2.953125, 2.859375, 2.890625, 2.875, 3.015625, 2.796875, 2.921875, 3.015625, 2.96875, 2.703125, 2.921875, 2.8125, 2.96875, 2.921875, 2.953125, 2.96875, 2.796875, 2.921875, 2.875, 2.953125, 2.953125, 2.890625, 2.828125, 2.9375, 2.703125, 2.890625, 2.8125, 2.96875, 2.90625, 2.84375, 2.78125, 2.875, 2.984375, 2.765625, 2.71875, 2.9375, 2.671875, 2.734375, 2.796875, 2.953125, 2.71875, 3.0, 2.78125, 2.921875, 2.890625, 3.03125, 3.0, 2.9375, 2.828125, 2.8125, 2.96875, 2.78125, 2.8125, 2.890625, 2.953125, 2.875, 2.640625, 2.765625, 2.90625, 2.84375, 2.890625, 2.890625, 2.84375, 2.6875, 2.734375, 2.78125, 2.75, 2.953125, 2.890625, 2.90625, 2.6875, 2.71875, 2.796875, 2.8125, 3.0, 2.921875, 2.8125, 2.796875, 2.8125, 2.609375, 3.046875, 2.734375, 2.84375, 2.8125, 2.875, 2.9375, 2.828125, 2.78125, 2.796875, 2.890625, 2.8125, 2.671875, 2.765625, 2.828125, 2.90625, 2.734375, 2.6875, 2.8125, 2.875, 2.9375, 2.828125, 3.015625, 2.71875, 2.859375, 2.75, 2.84375, 2.84375, 2.765625, 2.828125, 2.90625, 2.84375, 2.859375, 2.765625, 2.875, 2.75, 2.859375, 2.828125, 2.84375, 2.84375, 2.875, 2.734375, 2.71875, 2.859375, 2.875, 2.9375, 2.6875, 2.875, 2.78125, 2.640625, 2.84375, 2.9375, 2.921875, 2.828125, 2.9375, 2.796875, 2.8125, 2.9375, 2.765625, 2.625, 2.8125, 2.890625, 2.921875, 2.875, 2.78125, 3.015625, 2.8125, 2.796875, 2.921875, 2.875, 2.734375, 2.875, 2.859375, 2.90625, 2.921875, 2.890625, 2.8125, 2.765625, 2.84375, 2.90625, 2.828125, 2.8125, 2.921875, 2.90625, 2.859375, 2.921875, 2.859375, 2.921875, 2.953125, 3.0, 2.8125, 2.921875, 2.859375, 2.8125, 2.75, 2.828125, 3.0, 2.75, 2.78125, 2.859375, 2.65625, 2.984375, 2.828125, 2.84375, 2.90625, 2.90625, 2.796875, 2.890625, 2.78125, 2.71875, 2.765625, 2.84375, 2.9375, 2.75, 2.953125, 2.875, 2.828125, 2.75, 2.609375, 2.703125, 2.828125, 2.78125, 2.8125, 2.9375, 2.921875, 2.859375, 2.734375, 2.734375, 2.765625, 2.921875, 2.71875, 2.796875, 2.671875, 2.859375, 2.6875, 2.953125, 2.640625, 2.734375, 2.890625, 2.828125, 2.90625, 2.78125, 2.828125, 2.84375, 2.8125, 2.890625, 2.84375, 2.78125, 2.703125, 2.8125, 2.78125, 2.84375, 2.78125, 2.84375, 2.96875, 2.765625, 2.78125, 2.84375, 2.75, 2.828125, 2.75, 2.953125, 2.875, 2.859375, 2.890625, 2.765625, 2.640625, 2.75, 2.75, 2.890625, 2.71875, 2.6875, 2.671875, 2.828125, 2.671875, 2.84375, 2.875, 2.890625, 2.875, 2.703125, 2.765625, 2.75, 2.8125, 2.828125, 2.796875, 3.0, 2.859375, 2.84375, 2.734375, 2.734375, 2.890625, 2.8125, 2.765625, 2.71875, 2.75, 2.828125, 2.859375, 2.9375, 2.859375, 2.890625, 2.890625, 2.796875, 2.859375, 2.8125, 2.796875, 2.75, 2.8125, 2.65625, 2.75, 2.78125, 2.640625, 2.84375, 2.828125]","[56320.0, 2400.0, 1096.0, 708.0, 780.0, 552.0, 644.0, 488.0, 472.0, 552.0, 536.0, 458.0, 488.0, 368.0, 430.0, 324.0, 324.0, 314.0, 304.0, 346.0, 324.0, 260.0, 260.0, 245.0, 278.0, 245.0, 260.0, 253.0, 260.0, 191.0, 245.0, 237.0, 185.0, 230.0, 197.0, 216.0, 191.0, 191.0, 185.0, 185.0, 185.0, 158.0, 197.0, 153.0, 153.0, 163.0, 179.0, 149.0, 168.0, 144.0, 158.0, 163.0, 174.0, 153.0, 144.0, 140.0, 140.0, 149.0, 127.0, 123.0, 158.0, 158.0, 140.0, 158.0, 153.0, 123.0, 119.5, 123.0, 153.0, 119.5, 99.0, 105.5, 108.5, 119.5, 108.5, 115.5, 108.5, 102.0, 112.0, 115.5, 87.5, 112.0, 127.0, 105.5, 108.5, 102.0, 84.5, 108.5, 87.5, 90.0, 90.0, 105.5, 77.0, 119.5, 93.0, 102.0, 93.0, 119.5, 99.0, 79.5, 99.0, 84.5, 82.0, 79.5, 79.5, 82.0, 70.0, 77.0, 84.5, 74.5, 72.5, 66.0, 74.5, 68.0, 66.0, 72.5, 70.0, 62.0, 72.5, 68.0, 62.0, 68.0, 66.0, 60.0, 64.0, 70.0, 60.0, 58.25, 68.0, 72.5, 58.25, 64.0, 52.25, 68.0, 54.75, 74.5, 62.0, 62.0, 53.75, 60.0, 60.0, 49.75, 53.0, 48.25, 49.0, 53.75, 60.0, 51.25, 53.75, 54.75, 56.25, 47.5, 56.25, 47.5, 53.75, 46.0, 56.25, 52.25, 54.75, 50.5, 54.75, 51.25, 49.75, 44.0, 46.0, 46.75, 48.25, 42.0, 45.25, 45.25, 40.5, 48.25, 56.25, 44.5, 46.0, 40.0, 48.25, 48.25, 46.75, 51.25, 42.5, 46.0, 50.5, 40.0, 44.0, 52.25, 56.25, 48.25, 53.0, 49.75, 37.5, 42.5, 38.25, 46.75, 45.25, 46.75, 44.5, 46.75, 40.0, 40.0, 46.75, 45.25, 43.25, 37.0, 42.0, 40.0, 41.25, 46.75, 38.25, 40.0, 44.5, 47.5, 39.25, 40.0, 41.25, 42.5, 49.75, 39.25, 43.25, 38.25, 40.0, 38.25, 42.0, 38.75, 40.5, 37.5, 40.0, 40.5, 41.25, 38.75, 44.0, 34.25, 37.5, 36.5, 40.0, 38.75, 35.75, 34.75, 38.25, 30.125, 37.0, 34.75, 30.625, 35.25, 34.25, 43.25, 42.0, 32.5, 36.5, 36.5, 37.0, 38.75, 38.25, 32.5, 37.0, 34.25, 39.25, 35.25, 35.25, 38.75, 38.25, 33.75, 37.5, 34.25, 37.5, 33.75, 35.25, 37.0, 38.25, 27.875, 32.5, 38.25, 29.25, 34.75, 36.5, 38.25, 38.75, 33.25, 37.0, 34.25, 37.0, 36.5, 33.75, 34.25, 37.0, 37.0, 37.5, 33.75, 36.5, 30.625, 31.625, 32.5, 36.5, 33.25, 38.25, 33.75, 32.0, 34.25, 37.0, 27.5, 30.125, 34.25, 32.5, 31.125, 34.25, 35.75, 31.625, 34.75, 30.125, 35.75, 35.25, 31.625, 29.25, 34.25, 33.25, 32.5, 32.0, 30.125, 31.125, 31.625, 29.75, 28.75, 37.5, 36.5, 32.0, 33.75, 31.625, 27.875, 34.25, 35.75, 36.5, 29.75, 33.75, 31.125, 28.375, 33.75, 32.0, 31.125, 30.125, 31.625, 34.75, 24.625, 33.75, 35.25, 28.75, 33.75, 28.375, 29.25, 35.75, 31.125, 29.75, 27.5, 32.5, 38.75, 33.25, 25.75, 39.25, 27.875, 30.125, 33.75, 28.375, 32.5, 33.25, 32.0, 28.75, 29.75, 32.0, 32.0, 27.875, 34.25, 27.5, 28.75, 31.125, 27.875, 34.25, 34.25, 24.625, 29.25, 25.375, 31.125, 31.625, 29.75, 27.875, 34.75, 32.5, 33.25, 25.75, 31.625, 26.625, 30.125, 32.5, 28.375, 32.0, 28.75, 27.5, 30.625, 28.75, 27.875, 32.0, 30.125, 29.75, 29.75, 25.0, 24.625, 36.5, 30.125, 29.75, 24.25, 31.125, 27.5, 27.0, 30.625, 23.875, 28.375, 28.75, 29.75, 27.0, 27.875, 28.375, 28.375, 28.375, 21.375, 27.5, 26.625, 29.75, 27.5, 29.25, 32.0, 27.875, 31.125, 29.75, 27.5, 31.625, 27.5, 25.375, 30.625, 29.25, 29.25, 27.0, 27.875, 25.375, 26.25, 31.125, 27.5, 25.75, 22.125, 23.125, 29.75, 30.625, 34.75, 27.0, 31.625, 28.75, 27.0, 24.25, 30.125, 23.5, 24.625, 31.125, 25.0, 27.875, 29.25, 28.75, 29.75, 27.5, 28.75, 26.25, 27.0, 23.875, 27.5, 27.5, 27.875, 32.5, 32.0, 27.5, 23.5, 24.25, 29.25, 24.625, 26.625, 26.625, 29.25, 31.625, 27.875, 26.25, 25.375, 26.625, 28.75, 28.75, 25.75, 30.125, 26.25, 27.875, 24.25, 25.75, 29.25, 26.25, 26.625, 28.75, 27.5, 28.375, 24.625, 30.125, 28.75, 27.875, 23.5, 26.625, 22.75, 27.0, 25.375, 25.375, 28.375, 26.625, 28.375, 26.625, 26.625, 27.0, 30.625, 27.875, 24.25, 29.25, 28.375, 32.0, 28.375, 27.0, 23.125, 24.25, 25.0, 33.25, 29.75, 32.0, 27.5, 22.375, 22.125, 27.5, 26.25, 23.5, 25.75, 26.625, 28.375, 23.875, 24.625, 23.125, 23.125, 26.25, 24.25, 24.25, 26.625, 22.375, 22.375, 25.75, 24.625, 25.75, 25.75, 25.375, 24.625, 24.625, 24.25, 26.25, 21.75, 27.5, 23.875, 23.5, 25.0, 25.75, 20.75, 25.0, 27.0, 23.125, 23.5, 26.625, 23.125, 22.375, 22.125, 26.25, 27.5, 26.625, 28.375, 23.5, 19.125, 25.75, 27.0, 21.75, 22.75, 22.375, 19.5, 24.25, 23.875, 25.0, 21.375, 26.25, 25.375, 23.875, 22.75, 26.25, 27.875, 28.375, 25.0, 22.75, 20.75, 28.375, 23.875, 24.25, 25.0, 26.25, 26.625, 25.375, 26.625, 26.625, 27.0, 23.5, 22.75, 27.0, 29.25, 23.125, 23.125, 27.0, 22.375, 27.0, 21.75, 27.5, 27.5, 25.0, 26.25, 23.125, 23.5, 26.25, 20.75, 22.75, 23.875, 23.125, 21.75, 25.75, 24.25, 23.125, 24.25, 23.875, 25.375, 26.25, 25.75, 23.875, 25.375, 26.625, 26.625, 26.625, 20.125, 25.375, 21.75, 22.375, 24.625, 26.25, 22.125, 26.25, 23.125, 22.125, 21.75, 24.25, 25.375, 25.75, 28.375, 23.5, 23.5, 22.75, 22.125, 22.125, 22.75, 26.625, 22.75, 21.0, 22.75, 21.375, 29.25, 21.375, 23.125, 21.75, 22.75, 22.75, 23.5, 22.375, 25.0, 24.25, 23.5, 23.125, 22.375, 22.75, 25.75, 24.25, 21.75, 26.25, 22.125, 24.25, 25.75, 23.875, 20.125, 25.0, 25.375, 20.75, 23.5, 23.125, 23.125, 23.125, 23.875, 20.125, 21.75, 25.375, 21.0, 19.75, 24.25, 23.875, 20.125, 26.625, 24.25, 25.75, 24.25, 25.75, 20.75, 23.5, 25.0, 16.625, 21.375, 23.125, 20.75, 22.375, 25.0, 21.75, 23.125, 23.5, 23.125, 24.25, 23.5, 21.0, 21.375, 25.75, 23.875, 23.125, 25.0, 23.125, 22.375, 20.75, 21.375, 26.25, 22.125, 22.125, 22.375, 19.75, 27.0, 22.375, 21.0, 18.875, 21.75, 23.875, 22.125, 20.125, 22.125, 19.75, 23.5, 21.375, 25.0, 18.625, 21.0, 20.75, 19.5, 26.625, 25.375, 23.5, 22.75, 21.75, 21.375, 21.75, 23.5, 18.625, 21.0, 19.75, 21.375, 25.375, 22.75, 22.125, 21.75, 23.875, 22.375, 21.75, 26.625, 20.75, 25.0, 22.75, 19.5, 21.375, 24.625, 21.75, 21.75, 22.375, 22.75, 23.125, 19.75, 20.75, 23.875, 21.375, 21.375, 22.75, 18.875, 20.125, 21.375, 22.75, 27.0, 21.0, 22.125, 22.125, 23.875, 22.125, 23.5, 20.125, 23.125, 23.125, 22.125, 21.75, 19.75, 22.125, 21.0, 21.0, 22.75, 23.5, 23.875, 21.0, 21.0, 28.375, 22.75, 22.375, 23.125, 23.875, 20.375, 20.375, 22.75, 21.0, 23.875, 19.125, 20.75, 21.75, 22.375, 19.125, 17.25, 22.375, 21.375, 22.75, 22.375, 22.375, 22.125, 23.125, 26.625, 19.75, 20.75, 23.5, 23.5, 22.375, 21.0, 22.125, 23.875, 21.375, 18.25, 24.625, 18.25, 21.375, 22.375, 21.75, 23.875, 22.375, 23.125, 23.875, 23.125, 19.75, 20.375, 23.5, 24.625, 20.75, 22.375, 22.125, 20.375, 24.25, 20.375, 20.75, 18.625, 19.75, 20.75, 21.75, 19.125, 19.75, 21.0, 26.25, 22.125, 20.375, 22.125, 21.375, 24.625, 22.75, 21.75, 20.125, 18.625, 17.75, 20.375, 16.625, 24.625, 23.125, 20.375, 20.125, 19.5, 21.0, 19.125, 21.0, 23.875, 24.25, 21.75, 20.375, 19.75, 21.75, 22.125, 21.0, 21.375, 21.375, 18.25, 20.375, 21.75, 23.5, 22.125, 20.75, 21.375, 23.875, 23.125, 21.0, 20.125, 22.125, 22.375, 19.5, 20.75, 20.75, 23.125, 18.875, 18.625, 23.875, 21.375, 23.875, 21.0, 20.75, 21.75, 20.125, 20.125, 24.625, 19.75, 22.125, 23.125, 19.75, 21.375, 18.875, 23.875, 20.125, 22.375, 21.0, 23.875, 19.125, 22.375, 19.5, 24.25, 22.375, 23.5, 18.0, 23.125, 19.75, 22.375, 18.0, 23.5, 20.125, 18.625, 20.125, 20.125, 18.875, 18.875, 21.375, 19.125, 22.125, 22.75, 19.125, 18.875, 20.75, 20.375, 23.875, 18.625, 21.0, 20.75, 18.875, 18.875, 20.125, 19.75, 24.25, 22.125, 20.75, 20.125, 25.75, 21.75, 20.75, 21.0, 23.5, 19.75, 21.0, 24.625, 21.75, 18.25, 19.75, 18.875, 18.25, 17.5, 19.125, 20.375, 23.125, 20.375, 21.75, 22.125, 20.125, 23.5, 21.0, 19.75, 23.125, 19.75, 20.75, 23.875, 20.375, 19.5, 19.75, 21.0, 18.875, 23.875, 21.75, 22.375, 21.0, 18.25, 20.75, 19.125, 18.875, 21.75, 22.125, 18.625, 25.375, 21.375, 21.375, 21.0, 23.125, 20.375, 24.625, 21.75, 19.5, 19.125, 21.0, 19.125, 20.125, 22.75, 20.375, 16.125, 20.125, 21.375, 21.0, 20.375, 23.125, 23.125, 21.375, 19.75, 17.5, 18.25, 18.625, 22.375, 21.375, 22.125, 19.75, 23.125, 17.5, 21.0, 19.125, 22.125, 20.375, 18.625, 17.25, 19.125, 18.25, 19.75, 19.75, 19.125, 19.75, 20.75, 20.375, 18.25, 22.375, 23.125, 23.125, 17.5, 18.0, 19.125, 17.5, 18.875, 17.75, 17.75, 20.75, 20.75, 20.75, 19.75, 19.5, 19.75, 18.0, 21.0, 21.75, 21.75, 18.875, 20.125, 18.25, 18.875, 18.875, 19.125, 20.375, 20.125, 16.375, 20.75, 19.5, 23.125, 19.75, 19.125, 17.25, 22.75, 17.75, 25.375, 18.875, 17.75, 21.0, 17.25, 21.375, 19.75, 21.0, 18.875, 18.0, 20.125, 18.875, 19.75, 23.125, 20.375, 19.75, 21.375, 16.875, 17.5, 19.125, 18.625, 17.75, 19.125, 19.125, 20.375, 18.0, 22.375, 20.375, 20.125, 20.125, 22.125, 19.5, 20.375, 17.5, 17.25, 20.375, 18.875, 20.375, 20.375, 18.625, 18.875, 16.125, 18.25, 17.25, 19.75, 21.375, 16.375, 19.125, 19.125, 21.75, 18.875, 17.5, 15.875, 19.75, 18.0, 17.75, 17.25, 18.875, 16.625, 17.5, 20.125, 19.125, 22.125, 19.125, 18.625, 19.75, 23.125, 18.625, 20.75, 21.375, 15.625, 18.875, 17.75, 20.125, 22.375, 22.375, 16.875, 22.75, 22.375, 19.5, 22.375, 18.0, 18.25, 21.375, 18.875, 21.375, 16.125, 17.75, 22.75, 18.625, 17.5, 18.25, 21.0, 20.375, 19.125, 16.875, 18.0, 15.625, 15.875, 16.625, 19.5, 17.25, 17.75, 19.125, 16.375, 18.625, 17.25, 18.0, 16.625, 16.875, 16.875, 19.5, 22.125, 17.75, 18.875, 18.875, 16.375, 21.75, 17.5, 19.5, 18.875, 21.75, 18.0, 21.0, 22.125, 21.0, 19.125, 21.0, 19.5, 21.0, 21.375, 20.75, 19.5, 17.25, 22.375, 23.125, 22.125, 18.625, 18.625, 17.75, 16.875, 19.125, 18.25, 18.25, 18.0, 20.75, 21.375, 20.375, 21.375, 19.75, 18.875, 21.375, 19.5, 18.0, 22.375, 18.875, 16.375, 21.375, 20.75, 17.75, 25.75, 20.125, 17.5, 19.75, 20.125, 18.25, 18.25, 19.75, 18.625, 20.375, 18.875, 17.75, 19.75, 19.125, 19.75, 22.125, 16.625, 20.75, 18.0, 17.5, 18.25, 18.875, 16.375, 19.75, 20.125, 19.5, 21.75, 19.5, 16.125, 15.875, 18.875, 19.125, 18.25, 17.75, 22.75, 21.375, 20.375, 19.75, 19.125, 19.5, 17.75, 19.5, 17.25, 22.375, 15.875, 16.625, 17.5, 17.75, 19.75, 20.75, 22.125, 18.875, 18.25, 18.25, 18.875, 18.25, 17.75, 18.625, 16.625, 23.125, 21.0, 20.75, 22.375, 20.375, 16.875, 20.125, 19.5, 20.125, 18.625, 20.125, 19.75, 21.375, 19.125, 18.25, 16.625, 16.625, 18.25, 20.375, 21.0, 20.125, 18.875, 18.25, 19.125, 21.0, 17.25, 19.125, 18.625, 20.375, 19.5, 22.125, 18.25, 18.875, 17.25, 14.6875, 20.125, 15.875, 18.875, 20.375, 16.375, 17.5, 20.125, 19.125, 18.875, 18.625, 18.25, 18.625, 16.375, 17.75, 16.625, 16.125, 17.75, 18.25, 19.125, 19.5, 19.75, 18.625, 20.125, 17.5, 18.0, 21.375, 21.375, 19.5, 16.625, 18.625, 19.125, 17.75, 18.875, 18.625, 20.375, 17.25, 16.375, 20.125, 16.375, 19.5, 16.625, 15.625, 18.0, 19.125, 14.9375, 17.5, 16.625, 19.125, 17.25, 14.5, 16.625, 20.75, 16.625, 21.375, 18.875, 18.0, 19.125, 16.375, 18.25, 16.875, 16.625, 14.25, 22.75, 18.625, 19.125, 20.75, 18.0, 16.375, 19.125, 18.25, 19.5, 18.25, 16.625, 20.75, 18.25, 16.375, 19.5, 19.125, 15.4375, 17.25, 18.0, 18.875, 15.875, 18.625, 19.75, 16.125, 20.125, 18.625, 18.625, 19.75, 16.625, 20.125, 15.875, 17.25, 19.75, 18.875, 17.25, 16.375, 16.875, 17.75, 18.875, 16.125, 18.875, 16.875, 17.5, 16.125, 19.5, 14.6875, 14.5, 15.875, 18.25, 16.625, 17.75, 19.5, 21.75, 16.375, 18.625, 18.25, 20.375, 15.875, 17.75, 19.125, 15.875, 17.5, 15.1875, 18.625, 21.375, 18.25, 17.75, 19.125, 14.9375, 13.0, 15.875, 18.0, 17.5, 18.0, 15.4375, 17.5, 15.1875, 16.875, 16.125, 18.25, 18.0, 17.75, 15.625, 17.25, 19.125, 20.125, 17.75, 13.8125, 19.75, 17.75, 15.1875, 16.625, 17.25, 20.75, 16.125, 18.625, 15.875, 16.875, 18.0, 21.375, 19.125, 19.5, 17.5, 21.375, 14.5, 16.125, 19.75, 16.125, 19.125, 17.5, 19.75, 15.875, 19.125, 15.875, 15.625, 18.25, 17.75, 18.25, 17.25, 15.1875, 16.375, 17.75, 18.625, 14.9375, 15.875, 15.4375, 17.75, 18.625, 15.625, 15.1875, 19.125, 17.5, 18.0, 17.75, 20.375, 16.375, 18.625, 20.375, 19.5, 14.9375, 18.625, 16.625, 19.5, 18.625, 19.125, 19.5, 16.375, 18.625, 17.75, 19.125, 19.125, 18.0, 16.875, 18.875, 14.9375, 18.0, 16.625, 19.5, 18.25, 17.25, 16.125, 17.75, 19.75, 15.875, 15.1875, 18.875, 14.5, 15.4375, 16.375, 19.125, 15.1875, 20.125, 16.125, 18.625, 18.0, 20.75, 20.125, 18.875, 16.875, 16.625, 19.5, 16.125, 16.625, 18.0, 19.125, 17.75, 14.0, 15.875, 18.25, 17.25, 18.0, 18.0, 17.25, 14.6875, 15.4375, 16.125, 15.625, 19.125, 18.0, 18.25, 14.6875, 15.1875, 16.375, 16.625, 20.125, 18.625, 16.625, 16.375, 16.625, 13.625, 21.0, 15.4375, 17.25, 16.625, 17.75, 18.875, 16.875, 16.125, 16.375, 18.0, 16.625, 14.5, 15.875, 16.875, 18.25, 15.4375, 14.6875, 16.625, 17.75, 18.875, 16.875, 20.375, 15.1875, 17.5, 15.625, 17.25, 17.25, 15.875, 16.875, 18.25, 17.25, 17.5, 15.875, 17.75, 15.625, 17.5, 16.875, 17.25, 17.25, 17.75, 15.4375, 15.1875, 17.5, 17.75, 18.875, 14.6875, 17.75, 16.125, 14.0, 17.25, 18.875, 18.625, 16.875, 18.875, 16.375, 16.625, 18.875, 15.875, 13.8125, 16.625, 18.0, 18.625, 17.75, 16.125, 20.375, 16.625, 16.375, 18.625, 17.75, 15.4375, 17.75, 17.5, 18.25, 18.625, 18.0, 16.625, 15.875, 17.25, 18.25, 16.875, 16.625, 18.625, 18.25, 17.5, 18.625, 17.5, 18.625, 19.125, 20.125, 16.625, 18.625, 17.5, 16.625, 15.625, 16.875, 20.125, 15.625, 16.125, 17.5, 14.25, 19.75, 16.875, 17.25, 18.25, 18.25, 16.375, 18.0, 16.125, 15.1875, 15.875, 17.25, 18.875, 15.625, 19.125, 17.75, 16.875, 15.625, 13.625, 14.9375, 16.875, 16.125, 16.625, 18.875, 18.625, 17.5, 15.4375, 15.4375, 15.875, 18.625, 15.1875, 16.375, 14.5, 17.5, 14.6875, 19.125, 14.0, 15.4375, 18.0, 16.875, 18.25, 16.125, 16.875, 17.25, 16.625, 18.0, 17.25, 16.125, 14.9375, 16.625, 16.125, 17.25, 16.125, 17.25, 19.5, 15.875, 16.125, 17.25, 15.625, 16.875, 15.625, 19.125, 17.75, 17.5, 18.0, 15.875, 14.0, 15.625, 15.625, 18.0, 15.1875, 14.6875, 14.5, 16.875, 14.5, 17.25, 17.75, 18.0, 17.75, 14.9375, 15.875, 15.625, 16.625, 16.875, 16.375, 20.125, 17.5, 17.25, 15.4375, 15.4375, 18.0, 16.625, 15.875, 15.1875, 15.625, 16.875, 17.5, 18.875, 17.5, 18.0, 18.0, 16.375, 17.5, 16.625, 16.375, 15.625, 16.625, 14.25, 15.625, 16.125, 14.0, 17.25, 16.875]","[0.0, 0.06664197146892548, 0.08422009646892548, 0.09843076765537262, 0.0722319483757019, 0.1084657832980156, 0.08876616507768631, 0.10078798234462738, 0.10472790896892548, 0.099609375, 0.09361530095338821, 0.11698545515537262, 0.1044585108757019, 0.11028420925140381, 0.11190059036016464, 0.11496497690677643, 0.12240705639123917, 0.12452855706214905, 0.13432785868644714, 0.11604256182909012, 0.11304552853107452, 0.1270541548728943, 0.1289399266242981, 0.1299501657485962, 0.1268184334039688, 0.12126212567090988, 0.12412445992231369, 0.1297481209039688, 0.12718884646892548, 0.1317349076271057, 0.12429283559322357, 0.1327788233757019, 0.13820043206214905, 0.1347319483757019, 0.14294853806495667, 0.11587419360876083, 0.1261112540960312, 0.134765625, 0.1317012459039688, 0.12294585257768631, 0.1387729048728943, 0.1385371834039688, 0.11738954484462738, 0.1377963423728943, 0.1766567826271057, 0.1397494673728943, 0.10819639265537262, 0.1473599076271057, 0.15641836822032928, 0.14789870381355286, 0.1748046875, 0.11183324456214905, 0.12638065218925476, 0.15294988453388214, 0.12035290896892548, 0.14281384646892548, 0.1338227391242981, 0.15369072556495667, 0.16726158559322357, 0.15783269703388214, 0.14412716031074524, 0.14102908968925476, 0.12159886956214905, 0.1329471915960312, 0.16247978806495667, 0.14958243072032928, 0.16369207203388214, 0.1475282907485962, 0.14220769703388214, 0.1660829782485962, 0.1397494673728943, 0.14385776221752167, 0.1327114701271057, 0.1749057173728943, 0.1348666548728943, 0.18116918206214905, 0.15076103806495667, 0.15012122690677643, 0.15379175543785095, 0.15379175543785095, 0.18598464131355286, 0.1339237540960312, 0.14143319427967072, 0.16796875, 0.1534550040960312, 0.14520473778247833, 0.1612675040960312, 0.15894396603107452, 0.16648706793785095, 0.15379175543785095, 0.19989223778247833, 0.15076103806495667, 0.20652613043785095, 0.14762930572032928, 0.17887930572032928, 0.20386584103107452, 0.1895541548728943, 0.1424770951271057, 0.16928206384181976, 0.18382947146892548, 0.18187634646892548, 0.15887661278247833, 0.1961543709039688, 0.16271550953388214, 0.18147225677967072, 0.13937903940677643, 0.2002289891242981, 0.1670258641242981, 0.1834927201271057, 0.1845703125, 0.1639614701271057, 0.1541958451271057, 0.17254848778247833, 0.18605199456214905, 0.1856815665960312, 0.1915072798728943, 0.20171067118644714, 0.20261988043785095, 0.1571928858757019, 0.17807112634181976, 0.18605199456214905, 0.1874326467514038, 0.1758149266242981, 0.21837957203388214, 0.19975754618644714, 0.1904970407485962, 0.20787310600280762, 0.21117322146892548, 0.1612338423728943, 0.19080010056495667, 0.20817618072032928, 0.2100282907485962, 0.21656115353107452, 0.18416622281074524, 0.21423760056495667, 0.18716324865818024, 0.19103582203388214, 0.17504040896892548, 0.18877963721752167, 0.22592268884181976, 0.1768251657485962, 0.19288793206214905, 0.18995824456214905, 0.2040342092514038, 0.20265355706214905, 0.16870959103107452, 0.19063173234462738, 0.21709994971752167, 0.21918776631355286, 0.2110048532485962, 0.22723598778247833, 0.23484644293785095, 0.1993534415960312, 0.2353515625, 0.17813846468925476, 0.20915274322032928, 0.17019127309322357, 0.21999596059322357, 0.1649717092514038, 0.21467538177967072, 0.18504175543785095, 0.21837957203388214, 0.19955550134181976, 0.1807650923728943, 0.20558324456214905, 0.2157192826271057, 0.23046875, 0.20292295515537262, 0.22312769293785095, 0.1824824959039688, 0.20363011956214905, 0.20346175134181976, 0.20366379618644714, 0.1983095407485962, 0.2098935842514038, 0.24148033559322357, 0.2352842092514038, 0.19059805572032928, 0.1876346915960312, 0.2099946141242981, 0.20272091031074524, 0.1952114701271057, 0.2264614701271057, 0.20261988043785095, 0.2032596915960312, 0.20750269293785095, 0.18615300953388214, 0.16325430572032928, 0.19073276221752167, 0.2226225733757019, 0.26717403531074524, 0.2079067826271057, 0.19103582203388214, 0.18042834103107452, 0.20248518884181976, 0.1816743016242981, 0.21807651221752167, 0.21433863043785095, 0.23989762365818024, 0.2003300040960312, 0.16150322556495667, 0.23905576765537262, 0.22720231115818024, 0.19551454484462738, 0.20238415896892548, 0.21518050134181976, 0.2022157907485962, 0.24919180572032928, 0.20938846468925476, 0.22265625, 0.24552127718925476, 0.2168305516242981, 0.2305361032485962, 0.19864627718925476, 0.18143858015537262, 0.23019935190677643, 0.24161502718925476, 0.22393588721752167, 0.23491379618644714, 0.2500336766242981, 0.23424029350280762, 0.2276400923728943, 0.224609375, 0.2512796223163605, 0.19551454484462738, 0.1884765625, 0.25825026631355286, 0.21433863043785095, 0.2060210108757019, 0.20787310600280762, 0.23461072146892548, 0.24669988453388214, 0.2227572798728943, 0.21353043615818024, 0.20150862634181976, 0.22868399322032928, 0.20191271603107452, 0.19356141984462738, 0.23844961822032928, 0.21073545515537262, 0.19073276221752167, 0.24774380028247833, 0.22693291306495667, 0.20255252718925476, 0.25242456793785095, 0.1963564157485962, 0.2540409564971924, 0.2363618016242981, 0.24057112634181976, 0.20622305572032928, 0.22026535868644714, 0.2509092092514038, 0.22966055572032928, 0.20773841440677643, 0.20827721059322357, 0.24760910868644714, 0.18864493072032928, 0.25730738043785095, 0.2450835108757019, 0.20686288177967072, 0.1962890625, 0.24353447556495667, 0.25033673644065857, 0.2127895951271057, 0.2479795217514038, 0.2324892282485962, 0.2569706439971924, 0.20649245381355286, 0.2237675040960312, 0.22420528531074524, 0.25138065218925476, 0.21723464131355286, 0.2698006331920624, 0.23094019293785095, 0.19184401631355286, 0.2372373342514038, 0.2188846915960312, 0.21959185600280762, 0.21706627309322357, 0.2108364701271057, 0.22972790896892548, 0.22632677853107452, 0.2198612540960312, 0.24494881927967072, 0.23804552853107452, 0.21696524322032928, 0.22787581384181976, 0.23491379618644714, 0.20487608015537262, 0.2089506983757019, 0.19905038177967072, 0.24040274322032928, 0.21369881927967072, 0.21534886956214905, 0.16554418206214905, 0.23754040896892548, 0.26734238862991333, 0.2256869673728943, 0.23407192528247833, 0.25037041306495667, 0.26441270112991333, 0.20534752309322357, 0.21551723778247833, 0.23774245381355286, 0.19302262365818024, 0.2158876657485962, 0.23514951765537262, 0.22033269703388214, 0.2635371685028076, 0.24238954484462738, 0.19494207203388214, 0.251953125, 0.23073814809322357, 0.27495285868644714, 0.2870420217514038, 0.21703259646892548, 0.22639413177967072, 0.2294921875, 0.24097521603107452, 0.216796875, 0.2303677201271057, 0.2374393790960312, 0.2324555516242981, 0.19197872281074524, 0.2618197798728943, 0.22029903531074524, 0.2275390625, 0.2294921875, 0.28259697556495667, 0.21076913177967072, 0.23976293206214905, 0.21349675953388214, 0.23218615353107452, 0.2256532907485962, 0.20938846468925476, 0.23464439809322357, 0.24171605706214905, 0.19689519703388214, 0.21420393884181976, 0.2636381983757019, 0.2383149266242981, 0.23521685600280762, 0.2431303858757019, 0.24922548234462738, 0.21649380028247833, 0.24474675953388214, 0.2245083451271057, 0.22396956384181976, 0.2118803858757019, 0.24447737634181976, 0.19487473368644714, 0.26707300543785095, 0.21548356115818024, 0.2509092092514038, 0.2335331290960312, 0.27697333693504333, 0.20049838721752167, 0.2383486032485962, 0.24686826765537262, 0.2590921223163605, 0.2364291548728943, 0.2537715435028076, 0.21127425134181976, 0.26734238862991333, 0.2255522608757019, 0.21952451765537262, 0.22639413177967072, 0.22868399322032928, 0.21255387365818024, 0.22622574865818024, 0.3171134293079376, 0.27010372281074524, 0.21649380028247833, 0.26410964131355286, 0.20484240353107452, 0.17244747281074524, 0.25228986144065857, 0.24451103806495667, 0.22811153531074524, 0.1963227391242981, 0.2384159415960312, 0.28670528531074524, 0.24360182881355286, 0.17941810190677643, 0.23016567528247833, 0.22154498100280762, 0.26128098368644714, 0.24100889265537262, 0.23969557881355286, 0.24174973368644714, 0.23757408559322357, 0.2627626657485962, 0.24454471468925476, 0.22713497281074524, 0.25825026631355286, 0.18419988453388214, 0.21053341031074524, 0.2323208451271057, 0.19773706793785095, 0.22423894703388214, 0.2012729048728943, 0.2042025923728943, 0.2401670217514038, 0.216796875, 0.23380252718925476, 0.26407596468925476, 0.24245689809322357, 0.29360857605934143, 0.20383216440677643, 0.22976158559322357, 0.24191810190677643, 0.2656923532485962, 0.23888738453388214, 0.2403017282485962, 0.2518184185028076, 0.21265490353107452, 0.26613011956214905, 0.2791958451271057, 0.17315463721752167, 0.23865166306495667, 0.1942012459039688, 0.30620285868644714, 0.24265894293785095, 0.2792295217514038, 0.21144261956214905, 0.2481815665960312, 0.23373518884181976, 0.24255791306495667, 0.24154768884181976, 0.2663995027542114, 0.2617524266242981, 0.24868668615818024, 0.2625942826271057, 0.2858634293079376, 0.28367456793785095, 0.2440395951271057, 0.23996497690677643, 0.2521888315677643, 0.23882004618644714, 0.2471713423728943, 0.2570043206214905, 0.1954471915960312, 0.2303677201271057, 0.23589035868644714, 0.2707098722457886, 0.24265894293785095, 0.25744208693504333, 0.24841728806495667, 0.24986529350280762, 0.19278690218925476, 0.24626211822032928, 0.2274380326271057, 0.224609375, 0.25629714131355286, 0.27798357605934143, 0.22989627718925476, 0.2643790543079376, 0.2595972418785095, 0.2050444483757019, 0.24235586822032928, 0.22609105706214905, 0.28771552443504333, 0.28451642394065857, 0.2002963423728943, 0.25730738043785095, 0.19359509646892548, 0.2305697798728943, 0.25838497281074524, 0.2471713423728943, 0.2615840435028076, 0.26693829894065857, 0.2677128314971924, 0.20450565218925476, 0.22784213721752167, 0.26441270112991333, 0.27896013855934143, 0.2560614347457886, 0.2516837418079376, 0.2639075815677643, 0.21891836822032928, 0.26404228806495667, 0.2119814157485962, 0.19083377718925476, 0.19113685190677643, 0.24939385056495667, 0.24659886956214905, 0.23659752309322357, 0.2638402581214905, 0.22322872281074524, 0.26138201355934143, 0.2599340081214905, 0.24188442528247833, 0.22538389265537262, 0.2345096915960312, 0.20881600677967072, 0.2129916548728943, 0.24868668615818024, 0.23811288177967072, 0.25040408968925476, 0.2314116358757019, 0.2421201467514038, 0.24925915896892548, 0.2256869673728943, 0.22639413177967072, 0.20915274322032928, 0.25831761956214905, 0.26040545105934143, 0.2713496685028076, 0.24353447556495667, 0.2673087418079376, 0.2149447798728943, 0.25454607605934143, 0.2138671875, 0.21161098778247833, 0.22518184781074524, 0.22716863453388214, 0.26121363043785095, 0.21454067528247833, 0.2716190814971924, 0.23323006927967072, 0.23272494971752167, 0.2774111032485962, 0.23976293206214905, 0.23716998100280762, 0.2570043206214905, 0.2542093098163605, 0.2568022608757019, 0.23703528940677643, 0.24491514265537262, 0.2580145597457886, 0.2225888967514038, 0.24936018884181976, 0.2803407907485962, 0.24848464131355286, 0.2451845407485962, 0.2708108723163605, 0.2520541548728943, 0.21551723778247833, 0.2620218098163605, 0.22484509646892548, 0.2594962418079376, 0.2897696793079376, 0.2168305516242981, 0.22403690218925476, 0.24242322146892548, 0.2421875, 0.2555899918079376, 0.22235317528247833, 0.2784213423728943, 0.26306572556495667, 0.21066810190677643, 0.24966324865818024, 0.24185074865818024, 0.22888603806495667, 0.240234375, 0.2208041548728943, 0.23895473778247833, 0.2353178858757019, 0.27390894293785095, 0.2706761956214905, 0.20154228806495667, 0.24686826765537262, 0.23464439809322357, 0.23888738453388214, 0.21992860734462738, 0.24824891984462738, 0.23124326765537262, 0.26953125, 0.2508418560028076, 0.24747440218925476, 0.20979256927967072, 0.2628636956214905, 0.21639278531074524, 0.25235721468925476, 0.208984375, 0.23551993072032928, 0.2545797526836395, 0.21150997281074524, 0.2870083451271057, 0.2844490706920624, 0.24040274322032928, 0.22780846059322357, 0.21154363453388214, 0.23370151221752167, 0.24171605706214905, 0.2695649266242981, 0.23794449865818024, 0.22289197146892548, 0.251953125, 0.2663321793079376, 0.25521954894065857, 0.26831895112991333, 0.2674770951271057, 0.2551858723163605, 0.22885237634181976, 0.2256869673728943, 0.27087822556495667, 0.2928340435028076, 0.24302935600280762, 0.21918776631355286, 0.23521685600280762, 0.3069436848163605, 0.236328125, 0.2960668206214905, 0.29549434781074524, 0.228515625, 0.24629579484462738, 0.2470029592514038, 0.24164870381355286, 0.24760910868644714, 0.27784886956214905, 0.2560277581214905, 0.22383485734462738, 0.26518723368644714, 0.2722588777542114, 0.25245824456214905, 0.21558459103107452, 0.24339978396892548, 0.2595635652542114, 0.24235586822032928, 0.267578125, 0.22016432881355286, 0.22504714131355286, 0.2541756331920624, 0.24336610734462738, 0.25454607605934143, 0.20070043206214905, 0.24474675953388214, 0.2873787581920624, 0.259765625, 0.22787581384181976, 0.2604391276836395, 0.23026670515537262, 0.26400861144065857, 0.21912041306495667, 0.28077855706214905, 0.23673221468925476, 0.25737473368644714, 0.20649245381355286, 0.24205279350280762, 0.19497574865818024, 0.22393588721752167, 0.2665005326271057, 0.2383149266242981, 0.267578125, 0.2391904592514038, 0.25730738043785095, 0.2785223722457886, 0.22413793206214905, 0.2578125, 0.24275997281074524, 0.21548356115818024, 0.23006466031074524, 0.2674770951271057, 0.24690194427967072, 0.2491244673728943, 0.2733701467514038, 0.22440733015537262, 0.2549501657485962, 0.24730603396892548, 0.22922278940677643, 0.24888873100280762, 0.27387526631355286, 0.2364291548728943, 0.21410290896892548, 0.24949488043785095, 0.2256532907485962, 0.2599340081214905, 0.25952988862991333, 0.21922144293785095, 0.2561287581920624, 0.22107353806495667, 0.24925915896892548, 0.21528151631355286, 0.26734238862991333, 0.2707098722457886, 0.2344086766242981, 0.24572332203388214, 0.29926589131355286, 0.2442079782485962, 0.2546807527542114, 0.25356951355934143, 0.24609375, 0.2596309185028076, 0.2314453125, 0.25532057881355286, 0.25326642394065857, 0.27784886956214905, 0.22733701765537262, 0.23464439809322357, 0.25912579894065857, 0.22504714131355286, 0.22002963721752167, 0.1902949959039688, 0.2912513315677643, 0.24653151631355286, 0.23023302853107452, 0.25835129618644714, 0.28963497281074524, 0.2499663233757019, 0.2999393939971924, 0.26801589131355286, 0.2451171875, 0.2793642282485962, 0.2315126657485962, 0.22346444427967072, 0.24686826765537262, 0.23605872690677643, 0.23171471059322357, 0.2578798532485962, 0.21329471468925476, 0.23976293206214905, 0.2333984375, 0.21730199456214905, 0.20979256927967072, 0.2502693831920624, 0.2723599076271057, 0.23999865353107452, 0.28556033968925476, 0.24680091440677643, 0.22235317528247833, 0.2285829782485962, 0.26219019293785095, 0.2692281901836395, 0.2870756983757019, 0.26798221468925476, 0.25532057881355286, 0.25441136956214905, 0.25831761956214905, 0.2208378165960312, 0.26505252718925476, 0.25134697556495667, 0.24047009646892548, 0.24582435190677643, 0.3016231060028076, 0.26734238862991333, 0.2683526277542114, 0.26027074456214905, 0.2791958451271057, 0.21598868072032928, 0.24545393884181976, 0.26714035868644714, 0.2734038233757019, 0.2715180516242981, 0.3078528940677643, 0.2693628668785095, 0.25447872281074524, 0.2217470407485962, 0.2659280598163605, 0.25919315218925476, 0.22737069427967072, 0.24255791306495667, 0.2805764973163605, 0.24084050953388214, 0.28458377718925476, 0.2569032907485962, 0.2335331290960312, 0.2629310190677643, 0.2888604402542114, 0.2708108723163605, 0.25528690218925476, 0.27498653531074524, 0.2541419565677643, 0.24067214131355286, 0.23959456384181976, 0.2364291548728943, 0.3036772608757019, 0.2822939157485962, 0.24198545515537262, 0.25252559781074524, 0.29256466031074524, 0.20746901631355286, 0.21807651221752167, 0.2696659564971924, 0.2765018939971924, 0.2803407907485962, 0.2604391276836395, 0.1991177201271057, 0.2383486032485962, 0.2988954782485962, 0.25259295105934143, 0.2702047526836395, 0.2502693831920624, 0.24740706384181976, 0.2887931168079376, 0.23693425953388214, 0.26996901631355286, 0.2706088423728943, 0.2581155598163605, 0.24956223368644714, 0.2531317472457886, 0.2655913233757019, 0.26229122281074524, 0.2520541548728943, 0.21625807881355286, 0.2557583451271057, 0.2814857065677643, 0.28492051362991333, 0.2912513315677643, 0.23188307881355286, 0.23471175134181976, 0.2391567826271057, 0.2565665543079376, 0.2636381983757019, 0.2772763967514038, 0.29839035868644714, 0.2619881331920624, 0.26121363043785095, 0.2285829782485962, 0.2686893939971924, 0.2861328125, 0.26111260056495667, 0.2536368668079376, 0.25269395112991333, 0.2265625, 0.2665005326271057, 0.2781182527542114, 0.2090854048728943, 0.30906519293785095, 0.24936018884181976, 0.2431640625, 0.26515355706214905, 0.27677127718925476, 0.24632947146892548, 0.2313442826271057, 0.29040947556495667, 0.2575431168079376, 0.22888603806495667, 0.24831627309322357, 0.2687230706214905, 0.25326642394065857, 0.28478583693504333, 0.2901064157485962, 0.2625942826271057, 0.24447737634181976, 0.2010371834039688, 0.2731681168079376, 0.21565194427967072, 0.2763335108757019, 0.2581155598163605, 0.2854256331920624, 0.2403690665960312, 0.23326373100280762, 0.23895473778247833, 0.2323881983757019, 0.2373383641242981, 0.27781519293785095, 0.22494612634181976, 0.23198410868644714, 0.31297144293785095, 0.24084050953388214, 0.24104256927967072, 0.2362270951271057, 0.2617524266242981, 0.2471039891242981, 0.24198545515537262, 0.24481411278247833, 0.2508081793785095, 0.2383149266242981, 0.28367456793785095, 0.24154768884181976, 0.2844490706920624, 0.28101426362991333, 0.2501010298728943, 0.2314453125, 0.23811288177967072, 0.228515625, 0.24003233015537262, 0.22191540896892548, 0.23811288177967072, 0.2932381331920624, 0.2556573152542114, 0.2536368668079376, 0.27572736144065857, 0.2541083097457886, 0.21228447556495667, 0.2629983723163605, 0.23511584103107452, 0.2804418206214905, 0.22447466850280762, 0.27104660868644714, 0.2567012310028076, 0.2235654592514038, 0.2530643939971924, 0.2840113043785095, 0.23188307881355286, 0.24343346059322357, 0.2735722064971924, 0.3262729048728943, 0.2471039891242981, 0.22730334103107452, 0.28158673644065857, 0.2555563151836395, 0.25232353806495667, 0.2838766276836395, 0.27404364943504333, 0.2692618668079376, 0.27491918206214905, 0.25047144293785095, 0.25912579894065857, 0.22282461822032928, 0.25818291306495667, 0.2784550189971924, 0.24861934781074524, 0.23875269293785095, 0.27104660868644714, 0.2771753668785095, 0.2783203125, 0.27198949456214905, 0.29458513855934143, 0.26215651631355286, 0.2411099076271057, 0.2608768939971924, 0.29232892394065857, 0.2947198152542114, 0.24760910868644714, 0.21841324865818024, 0.23659752309322357, 0.2472050040960312, 0.2881196141242981, 0.2275727391242981, 0.2697669565677643, 0.20965786278247833, 0.2566338777542114, 0.24568966031074524, 0.28461745381355286, 0.26501885056495667, 0.22211745381355286, 0.27306708693504333, 0.2804754972457886, 0.26707300543785095, 0.24050377309322357, 0.25922682881355286, 0.27013739943504333, 0.2833041548728943, 0.2469692826271057, 0.2480805516242981, 0.24454471468925476, 0.23400457203388214, 0.22497978806495667, 0.2333310842514038, 0.22720231115818024, 0.23754040896892548, 0.2717537581920624, 0.24262526631355286, 0.27515488862991333, 0.27394261956214905, 0.25831761956214905, 0.2673760652542114, 0.21952451765537262, 0.23363415896892548, 0.24259158968925476, 0.2561287581920624, 0.2286503165960312, 0.30435076355934143, 0.23397091031074524, 0.2606748342514038, 0.27384158968925476, 0.2645474076271057, 0.27970096468925476, 0.23413927853107452, 0.25441136956214905, 0.25141432881355286, 0.2742456793785095, 0.2431640625, 0.2109038233757019, 0.28370824456214905, 0.2246767282485962, 0.22979526221752167, 0.2176724076271057, 0.29330548644065857, 0.23599137365818024, 0.24747440218925476, 0.23999865353107452, 0.24302935600280762, 0.24787850677967072, 0.2246430516242981, 0.22689925134181976, 0.25548896193504333, 0.2577114701271057, 0.2605401277542114, 0.2413119673728943, 0.23265759646892548, 0.26417699456214905, 0.26215651631355286, 0.2550848722457886, 0.2813173532485962, 0.22238685190677643, 0.2100619673728943, 0.2575431168079376, 0.2547817826271057, 0.24444369971752167, 0.2560277581214905, 0.2832368016242981, 0.22885237634181976, 0.24861934781074524, 0.26441270112991333, 0.24366918206214905, 0.2381802201271057, 0.2500673532485962, 0.2413456290960312, 0.2939789891242981, 0.28003770112991333, 0.2547144293785095, 0.2772090435028076, 0.28370824456214905, 0.25932785868644714, 0.3118264973163605, 0.2599003314971924, 0.2832368016242981, 0.23956088721752167, 0.2764682173728943, 0.24730603396892548, 0.24626211822032928, 0.2773100733757019, 0.23454336822032928, 0.2352842092514038, 0.24441002309322357, 0.2715180516242981, 0.2576777935028076, 0.2512796223163605, 0.2588900923728943, 0.2442753165960312, 0.24831627309322357, 0.23161368072032928, 0.2547817826271057, 0.22898706793785095, 0.24090786278247833, 0.24097521603107452, 0.22908809781074524, 0.2345096915960312, 0.2928677201271057, 0.24185074865818024, 0.23767510056495667, 0.2569032907485962, 0.2030913233757019, 0.2169315665960312, 0.2589574456214905, 0.22679822146892548, 0.2255522608757019, 0.26333513855934143, 0.2959657907485962, 0.20726697146892548, 0.3244208097457886, 0.2501347064971924, 0.23488011956214905, 0.2695986032485962, 0.28458377718925476, 0.2538725733757019, 0.25350216031074524, 0.28279903531074524, 0.27198949456214905, 0.2821255326271057, 0.2998720407485962, 0.2643453776836395, 0.24585802853107452, 0.21555091440677643, 0.2571053206920624, 0.2531990706920624, 0.2521888315677643, 0.2803071141242981, 0.22545123100280762, 0.2790274918079376, 0.2616177201271057, 0.2805764973163605, 0.22726966440677643, 0.2785223722457886, 0.1932920217514038, 0.2971443831920624, 0.2625269293785095, 0.2599340081214905, 0.2511786222457886, 0.2421875, 0.2548828125, 0.2812163233757019, 0.2851899266242981, 0.2516500651836395, 0.2811826467514038, 0.2696659564971924, 0.2702047526836395, 0.3351629972457886, 0.2763335108757019, 0.2542093098163605, 0.2698006331920624, 0.24777747690677643, 0.2227909415960312, 0.27896013855934143, 0.2471376657485962, 0.2537715435028076, 0.28071120381355286, 0.25720635056495667, 0.26990166306495667, 0.2362944483757019, 0.26128098368644714, 0.2773100733757019, 0.2629310190677643, 0.2696322798728943, 0.2737405598163605, 0.2664668560028076, 0.2616513967514038, 0.27182111144065857, 0.25744208693504333, 0.2672750651836395, 0.2558256983757019, 0.26421067118644714, 0.2772763967514038, 0.2393251657485962, 0.23461072146892548, 0.2715854048728943, 0.20652613043785095, 0.2790948152542114, 0.24238954484462738, 0.2940800189971924, 0.27299973368644714, 0.28360721468925476, 0.26441270112991333, 0.2529970407485962, 0.2556573152542114, 0.2773100733757019, 0.26538926362991333, 0.2804754972457886, 0.2646821141242981, 0.2526603043079376, 0.23518319427967072, 0.2579808831214905, 0.25043776631355286, 0.22322872281074524, 0.27592942118644714, 0.27209052443504333, 0.2918911576271057, 0.2832368016242981, 0.23306168615818024, 0.28071120381355286, 0.22053475677967072, 0.22322872281074524, 0.2698343098163605, 0.23174838721752167, 0.2516500651836395, 0.2714506983757019, 0.2663321793079376, 0.2597319483757019, 0.29956895112991333, 0.2600013315677643, 0.2432650923728943, 0.25814923644065857, 0.23100754618644714, 0.29751482605934143, 0.23976293206214905, 0.3095703125, 0.2618534564971924, 0.28589707612991333, 0.2345096915960312, 0.24629579484462738, 0.28458377718925476, 0.2684536576271057, 0.2595635652542114, 0.271484375, 0.2704067826271057, 0.2804081439971924, 0.25919315218925476, 0.2452182173728943, 0.2567685842514038, 0.28259697556495667, 0.228515625, 0.27017107605934143, 0.24959591031074524, 0.26128098368644714, 0.2741110026836395, 0.25447872281074524, 0.2902411222457886, 0.2760641276836395, 0.2587553858757019, 0.2644463777542114, 0.2550511956214905, 0.24380387365818024, 0.26020339131355286, 0.2686557173728943, 0.28970232605934143, 0.2530980706214905, 0.28199082612991333, 0.27303341031074524, 0.20383216440677643, 0.24474675953388214, 0.2148100733757019, 0.2520204782485962, 0.24666622281074524, 0.28653690218925476, 0.2402006983757019, 0.2471039891242981, 0.25047144293785095, 0.26205548644065857, 0.2539736032485962, 0.2881196141242981, 0.25528690218925476, 0.2785223722457886, 0.31785425543785095, 0.2723262310028076, 0.2946188151836395, 0.22673086822032928, 0.26912716031074524, 0.25427666306495667, 0.24383755028247833, 0.26501885056495667, 0.2575431168079376, 0.2988618016242981, 0.2686557173728943, 0.2521888315677643, 0.2735048532485962, 0.22134293615818024, 0.3015557527542114, 0.2713159918785095, 0.2702384293079376, 0.24528555572032928, 0.24289466440677643, 0.2834725081920624, 0.2450161576271057, 0.2713159918785095, 0.25437769293785095, 0.2997710108757019, 0.3056640625, 0.27188846468925476, 0.2647831439971924, 0.2813847064971924, 0.2604391276836395, 0.25451239943504333, 0.2774447798728943, 0.29839035868644714, 0.2763335108757019, 0.24740706384181976, 0.2548154592514038, 0.2909482717514038, 0.2853919565677643, 0.32263603806495667, 0.24936018884181976, 0.26791486144065857, 0.22898706793785095, 0.3087621331214905, 0.24942752718925476, 0.2619544565677643, 0.2868399918079376, 0.2702047526836395, 0.2430630326271057, 0.2579808831214905, 0.2763335108757019, 0.26831895112991333, 0.26235857605934143, 0.25838497281074524, 0.2698006331920624, 0.26616379618644714, 0.21895204484462738, 0.2333310842514038, 0.3047211766242981, 0.23114223778247833, 0.2742120027542114, 0.2584860026836395, 0.2527276277542114, 0.23508216440677643, 0.28370824456214905, 0.2216123342514038, 0.2597993016242981, 0.27879175543785095, 0.2823275923728943, 0.2578125, 0.2442079782485962, 0.18699488043785095, 0.26515355706214905, 0.2609778940677643, 0.26016971468925476, 0.25942888855934143, 0.2236664891242981, 0.2832368016242981, 0.24481411278247833, 0.28353986144065857, 0.24932651221752167, 0.2842807173728943, 0.2940126657485962, 0.21329471468925476, 0.26508620381355286, 0.28842267394065857, 0.2911503314971924, 0.26498517394065857, 0.28188982605934143, 0.25249192118644714, 0.21716728806495667, 0.22992995381355286, 0.2922615706920624, 0.21066810190677643, 0.2692281901836395, 0.2353852391242981, 0.2550848722457886, 0.2890625, 0.24461206793785095, 0.27603045105934143, 0.32863011956214905, 0.2804418206214905, 0.2881869673728943, 0.2674097418785095, 0.2412446141242981, 0.2626616358757019, 0.2724272608757019, 0.25451239943504333, 0.26222386956214905, 0.25643184781074524, 0.2586880326271057, 0.26831895112991333, 0.2568022608757019, 0.2257206290960312, 0.2520204782485962, 0.2528623342514038, 0.2851225733757019, 0.2628636956214905, 0.3083916902542114, 0.27390894293785095, 0.2500673532485962, 0.22444100677967072, 0.26313307881355286, 0.23397091031074524, 0.25622978806495667, 0.2940800189971924, 0.2952249348163605, 0.2462284415960312, 0.2688240706920624, 0.2675444483757019, 0.2716190814971924, 0.22497978806495667, 0.23289331793785095, 0.26020339131355286, 0.2713833451271057, 0.3055630326271057, 0.2755926847457886, 0.3028690814971924, 0.24824891984462738, 0.25367051362991333, 0.271484375, 0.25148168206214905, 0.29744747281074524, 0.31509295105934143, 0.2634698152542114, 0.27491918206214905, 0.26794853806495667, 0.2335331290960312, 0.2754579782485962, 0.3000067472457886, 0.2811489701271057, 0.23184940218925476, 0.25326642394065857, 0.25521954894065857, 0.27475079894065857, 0.20854660868644714, 0.27198949456214905, 0.2614156901836395, 0.23003098368644714, 0.2442753165960312, 0.23198410868644714, 0.2305697798728943, 0.2615503668785095, 0.24552127718925476, 0.23488011956214905, 0.2736395597457886, 0.2589574456214905, 0.25043776631355286, 0.2216796875, 0.24464574456214905, 0.2850888967514038, 0.2922278940677643, 0.2704404592514038, 0.23087283968925476, 0.2461274266242981, 0.2655913233757019, 0.302734375, 0.29438307881355286, 0.24171605706214905, 0.27774783968925476, 0.2694302201271057, 0.2723935842514038, 0.2676454782485962, 0.2676118016242981, 0.3086274266242981, 0.26734238862991333, 0.2255859375, 0.23302800953388214, 0.2646147608757019, 0.28162041306495667, 0.26905980706214905, 0.2354189157485962, 0.28660425543785095, 0.28370824456214905, 0.21743668615818024, 0.30111798644065857, 0.31482353806495667, 0.2723599076271057, 0.2745487689971924, 0.20581896603107452, 0.29663926362991333, 0.2506735026836395, 0.26205548644065857, 0.29818829894065857, 0.2411435842514038, 0.3103784918785095, 0.2512796223163605, 0.2452518790960312, 0.2659280598163605, 0.29738011956214905, 0.2776468098163605, 0.27879175543785095, 0.27097925543785095, 0.2549164891242981, 0.26215651631355286, 0.27791622281074524, 0.2606411576271057, 0.21794180572032928, 0.28269800543785095, 0.27387526631355286, 0.2628973722457886, 0.2684536576271057, 0.31091728806495667, 0.27488550543785095, 0.23592403531074524, 0.3014884293079376, 0.2584860026836395, 0.2324892282485962, 0.25939521193504333, 0.271484375, 0.3007138967514038, 0.24363550543785095, 0.28774920105934143, 0.2555563151836395, 0.2731681168079376, 0.2557246685028076, 0.24366918206214905, 0.23474541306495667, 0.29077988862991333, 0.24845096468925476, 0.2830684185028076, 0.3015557527542114, 0.2586206793785095, 0.2900727391242981, 0.2776468098163605, 0.2849541902542114, 0.2295932173728943, 0.2814183831214905, 0.2711813151836395, 0.2967402935028076, 0.2811826467514038, 0.2819571793079376, 0.31014278531074524, 0.2714170217514038, 0.2734711766242981, 0.26808324456214905, 0.26636582612991333, 0.26986798644065857, 0.26023706793785095, 0.2766365706920624, 0.2980536222457886, 0.2901064157485962, 0.26424434781074524, 0.28364089131355286, 0.2917228043079376, 0.2608432173728943, 0.2166958451271057, 0.25390625, 0.25821658968925476, 0.2853919565677643, 0.28859105706214905, 0.30899783968925476, 0.23902209103107452, 0.2391904592514038, 0.26616379618644714, 0.26710668206214905, 0.2518520951271057, 0.25818291306495667, 0.2977842092514038, 0.2383486032485962, 0.26619747281074524, 0.2926656901836395, 0.2693291902542114, 0.2618534564971924, 0.2898706793785095, 0.2781182527542114, 0.2512796223163605, 0.33145877718925476, 0.29546067118644714, 0.29845771193504333, 0.3036099076271057, 0.25148168206214905, 0.2550848722457886, 0.22989627718925476, 0.2580145597457886, 0.27788254618644714, 0.2571389973163605, 0.24922548234462738, 0.2646147608757019, 0.2625942826271057, 0.2737068831920624, 0.31782057881355286, 0.3078865706920624, 0.3269800543785095, 0.3191338777542114, 0.2782866358757019, 0.24683459103107452, 0.2677128314971924, 0.2712149918079376, 0.2648168206214905, 0.2577114701271057, 0.2792631983757019, 0.29529228806495667, 0.29158809781074524, 0.29044315218925476, 0.25939521193504333, 0.2413456290960312, 0.27104660868644714, 0.31984105706214905, 0.2384159415960312, 0.2823949456214905, 0.29451778531074524, 0.27475079894065857, 0.2791621685028076, 0.31994208693504333, 0.2903421223163605, 0.27293238043785095, 0.23131060600280762, 0.2752222418785095, 0.2392241358757019, 0.2961341440677643, 0.2736732065677643, 0.27781519293785095, 0.29445043206214905, 0.3116581439971924, 0.2560614347457886, 0.2560950815677643, 0.3025323152542114, 0.2936422526836395, 0.28747978806495667, 0.2731681168079376, 0.26222386956214905, 0.28663793206214905, 0.3137796223163605, 0.2531990706920624, 0.2197602391242981, 0.24474675953388214, 0.23181572556495667, 0.3185277581214905, 0.2733364701271057, 0.2979525923728943, 0.2580818831920624, 0.2549838423728943, 0.24986529350280762, 0.2794652581214905, 0.2647831439971924, 0.22976158559322357, 0.3166756331920624, 0.2962014973163605, 0.2314789891242981, 0.2510439157485962, 0.25821658968925476, 0.24478043615818024, 0.24242322146892548, 0.2823949456214905, 0.3183256983757019, 0.29141971468925476, 0.28747978806495667, 0.3123316168785095, 0.30132004618644714, 0.2332974076271057, 0.28175511956214905, 0.3361732065677643, 0.2722925543785095, 0.24494881927967072, 0.25737473368644714, 0.2657260298728943, 0.2878838777542114, 0.33644261956214905, 0.2979189157485962, 0.29232892394065857, 0.27310076355934143, 0.29919853806495667, 0.21447332203388214, 0.23019935190677643, 0.2919585108757019, 0.25269395112991333, 0.2755926847457886, 0.24983163177967072, 0.3202788233757019, 0.2432987540960312, 0.24201913177967072, 0.3252289891242981, 0.2619544565677643, 0.2596309185028076, 0.23080550134181976, 0.29296875, 0.30431708693504333, 0.2392914891242981, 0.2897696793079376, 0.2980199456214905, 0.2717874348163605, 0.28081223368644714, 0.2922278940677643, 0.23003098368644714, 0.2938779592514038, 0.2558256983757019, 0.2595635652542114, 0.22316136956214905, 0.22390221059322357, 0.28970232605934143, 0.28084591031074524, 0.3292025923728943, 0.3046538233757019, 0.2809806168079376, 0.2540072798728943, 0.2391567826271057, 0.2353852391242981, 0.2676454782485962, 0.3141837418079376, 0.29744747281074524, 0.2870420217514038, 0.25538793206214905, 0.3018925189971924, 0.23319639265537262, 0.32462283968925476, 0.3135439157485962, 0.32482489943504333, 0.2522561848163605, 0.2981546223163605, 0.24750807881355286, 0.2605738043785095, 0.3196053206920624, 0.2772427201271057, 0.2527949810028076, 0.2676791548728943, 0.2762998342514038, 0.2609778940677643, 0.22410425543785095, 0.2695649266242981, 0.2878838777542114, 0.3087284564971924, 0.25144800543785095, 0.3193022608757019, 0.2413456290960312, 0.25932785868644714, 0.28296738862991333, 0.32576778531074524, 0.28751346468925476, 0.2723599076271057, 0.2674770951271057, 0.2871430516242981, 0.27188846468925476, 0.2537041902542114, 0.2607758641242981, 0.33536502718925476, 0.28774920105934143, 0.3084253668785095, 0.279296875, 0.31206223368644714, 0.2782192826271057, 0.27299973368644714, 0.23009832203388214, 0.3075161576271057, 0.3156990706920624, 0.2852909564971924, 0.23956088721752167, 0.3047211766242981, 0.2656586766242981, 0.23865166306495667, 0.2716864347457886, 0.25643184781074524, 0.29138603806495667, 0.2754243016242981, 0.2605738043785095, 0.2109711766242981, 0.28677263855934143, 0.23067079484462738, 0.30037716031074524, 0.2599676847457886, 0.29532596468925476, 0.28081223368644714, 0.22794315218925476, 0.29236260056495667, 0.27000269293785095, 0.29849138855934143, 0.21561826765537262, 0.2822602391242981, 0.2645474076271057, 0.23188307881355286, 0.23498113453388214, 0.2794315814971924, 0.23952721059322357, 0.28943291306495667, 0.22979526221752167, 0.2595972418785095, 0.30812230706214905, 0.2518857717514038, 0.29539331793785095, 0.2790948152542114, 0.2503030598163605, 0.25633081793785095, 0.3001077473163605, 0.31307247281074524, 0.2629310190677643, 0.27404364943504333, 0.27680495381355286, 0.3008149266242981, 0.2791284918785095, 0.24397225677967072, 0.2971107065677643, 0.3123652935028076, 0.26734238862991333, 0.2743467092514038, 0.3254983723163605, 0.2930361032485962, 0.267578125, 0.2587890625, 0.2891298532485962, 0.28754714131355286, 0.2577451467514038, 0.2698006331920624, 0.2714506983757019, 0.28515625, 0.23188307881355286, 0.30041083693504333, 0.23895473778247833, 0.23026670515537262, 0.21918776631355286, 0.27306708693504333, 0.25548896193504333, 0.2936759293079376, 0.2657260298728943, 0.29721173644065857, 0.2821255326271057, 0.2489560842514038, 0.2882879972457886, 0.2499326467514038, 0.2403354048728943, 0.25831761956214905, 0.2813510298728943, 0.28182247281074524, 0.28084591031074524, 0.2284482717514038, 0.2653556168079376, 0.28465113043785095, 0.25431033968925476, 0.23046875, 0.25434401631355286, 0.3045864701271057, 0.26700565218925476, 0.27384158968925476, 0.31694504618644714, 0.29054418206214905, 0.28660425543785095, 0.2987607717514038, 0.2480805516242981, 0.2452518790960312, 0.24097521603107452, 0.25444504618644714, 0.2450161576271057, 0.2654229402542114, 0.2694975733757019, 0.2811152935028076, 0.27387526631355286, 0.24959591031074524, 0.32162579894065857, 0.24484778940677643, 0.3045864701271057, 0.2555899918079376, 0.2695986032485962, 0.26528826355934143, 0.2648504972457886, 0.29842403531074524, 0.2772090435028076, 0.2747171223163605, 0.2829000651836395, 0.23259024322032928, 0.24639682471752167, 0.2363618016242981, 0.2785896956920624, 0.33832839131355286, 0.3053610026836395, 0.2844490706920624, 0.24959591031074524, 0.2821928858757019, 0.3113213777542114, 0.27613145112991333, 0.2608768939971924, 0.2713833451271057, 0.2636381983757019, 0.2863011956214905, 0.2587217092514038, 0.24976427853107452, 0.30128636956214905, 0.2403017282485962, 0.27875807881355286, 0.2687903940677643, 0.2608768939971924, 0.24592538177967072, 0.24249057471752167, 0.25855332612991333, 0.26114627718925476, 0.2374393790960312, 0.27485182881355286, 0.2978852391242981, 0.24255791306495667, 0.2501683831214905, 0.32280442118644714, 0.23518319427967072, 0.2654566168785095, 0.2596982717514038, 0.3165746331214905, 0.2595635652542114, 0.2762998342514038, 0.21612338721752167, 0.24858567118644714, 0.28946658968925476, 0.2682516276836395, 0.27677127718925476, 0.27303341031074524, 0.2800040543079376, 0.3209860026836395, 0.2392578125, 0.2753569483757019, 0.25821658968925476, 0.27394261956214905, 0.3098396956920624, 0.22188173234462738, 0.28067752718925476, 0.2634024918079376, 0.24626211822032928, 0.28360721468925476, 0.291015625, 0.28084591031074524, 0.2831694483757019, 0.2840786576271057, 0.27673760056495667, 0.2840786576271057, 0.30431708693504333, 0.3054620027542114, 0.23393723368644714, 0.2688240706920624, 0.28273168206214905, 0.2881196141242981, 0.20760372281074524, 0.29542699456214905, 0.2609105706214905, 0.2841123342514038, 0.3085600733757019, 0.2765355706214905, 0.29441675543785095, 0.2517847418785095, 0.2721578776836395, 0.2472050040960312, 0.23174838721752167, 0.2538725733757019, 0.32179418206214905, 0.2618197798728943, 0.3034078776836395, 0.2829337418079376, 0.26623114943504333, 0.2961341440677643, 0.30630388855934143, 0.28562769293785095, 0.3213227391242981, 0.31209591031074524, 0.3079202473163605]","[10.9375, 7.875, 7.125, 6.71875, 6.78125, 6.53125, 6.59375, 6.375, 6.375, 6.5, 6.375, 6.375, 6.375, 6.09375, 6.28125, 6.0625, 5.96875, 6.0, 6.0, 6.09375, 6.03125, 5.8125, 5.90625, 5.8125, 5.90625, 5.75, 5.78125, 5.8125, 5.8125, 5.53125, 5.75, 5.8125, 5.46875, 5.71875, 5.53125, 5.5625, 5.53125, 5.53125, 5.4375, 5.46875, 5.53125, 5.40625, 5.46875, 5.25, 5.40625, 5.4375, 5.4375, 5.3125, 5.46875, 5.3125, 5.5, 5.34375, 5.5, 5.375, 5.21875, 5.28125, 5.21875, 5.40625, 5.21875, 5.1875, 5.40625, 5.3125, 5.21875, 5.3125, 5.34375, 5.03125, 5.15625, 5.125, 5.375, 5.125, 4.90625, 4.875, 4.84375, 5.15625, 4.96875, 5.0625, 5.0, 4.96875, 5.0625, 5.0, 4.84375, 5.03125, 5.03125, 5.0, 5.0, 4.90625, 4.625, 5.03125, 4.84375, 4.6875, 4.90625, 5.0, 4.8125, 5.09375, 5.0, 5.0625, 4.875, 5.0625, 4.96875, 4.6875, 5.0625, 4.78125, 4.90625, 4.6875, 4.75, 4.71875, 4.8125, 4.65625, 4.875, 4.75, 4.625, 4.5, 4.65625, 4.625, 4.53125, 4.625, 4.75, 4.53125, 4.625, 4.625, 4.5, 4.625, 4.59375, 4.53125, 4.5625, 4.6875, 4.5, 4.59375, 4.625, 4.65625, 4.625, 4.5625, 4.40625, 4.65625, 4.46875, 4.65625, 4.5, 4.53125, 4.375, 4.625, 4.40625, 4.34375, 4.3125, 4.25, 4.21875, 4.28125, 4.625, 4.4375, 4.5, 4.4375, 4.5625, 4.4375, 4.375, 4.3125, 4.28125, 4.21875, 4.34375, 4.5625, 4.4375, 4.4375, 4.40625, 4.40625, 4.375, 4.15625, 4.34375, 4.3125, 4.40625, 4.15625, 4.375, 4.09375, 4.21875, 4.375, 4.5, 4.0625, 4.28125, 4.28125, 4.46875, 4.25, 4.3125, 4.46875, 4.15625, 4.21875, 4.5, 4.15625, 4.3125, 4.4375, 4.5625, 4.25, 4.46875, 4.40625, 4.3125, 4.3125, 4.09375, 4.28125, 4.25, 4.21875, 4.28125, 4.34375, 4.28125, 4.1875, 4.15625, 4.46875, 4.15625, 4.0625, 4.21875, 4.25, 4.1875, 4.5, 4.09375, 4.1875, 4.40625, 4.3125, 4.21875, 4.09375, 4.0625, 4.375, 4.4375, 4.25, 4.28125, 4.21875, 4.3125, 4.09375, 4.28125, 4.0625, 3.984375, 4.09375, 4.28125, 4.15625, 3.953125, 4.125, 4.34375, 4.0625, 3.953125, 4.125, 4.28125, 4.15625, 3.984375, 3.921875, 4.15625, 3.765625, 3.96875, 4.15625, 3.921875, 3.875, 4.1875, 4.15625, 4.28125, 3.9375, 4.09375, 3.921875, 3.953125, 4.25, 4.125, 3.890625, 3.9375, 4.125, 4.09375, 4.09375, 3.953125, 3.984375, 3.984375, 3.921875, 4.15625, 3.921875, 4.15625, 3.875, 4.0625, 4.09375, 4.15625, 3.890625, 4.0625, 4.15625, 3.90625, 4.09375, 4.09375, 4.25, 4.03125, 4.03125, 4.125, 4.0, 4.125, 4.09375, 4.0, 4.15625, 4.09375, 4.0625, 4.09375, 3.96875, 4.09375, 3.75, 3.875, 4.09375, 4.09375, 3.90625, 4.03125, 3.984375, 3.96875, 4.15625, 4.1875, 3.8125, 3.9375, 4.03125, 4.09375, 4.03125, 3.859375, 4.1875, 4.15625, 4.09375, 4.0625, 4.1875, 3.875, 4.03125, 3.90625, 4.125, 4.28125, 3.953125, 3.96875, 3.734375, 3.984375, 3.96875, 3.875, 3.9375, 4.125, 4.0625, 4.09375, 3.90625, 3.921875, 3.890625, 4.28125, 4.0, 4.15625, 3.828125, 3.9375, 4.0, 3.734375, 4.09375, 4.0, 3.984375, 3.859375, 4.125, 4.21875, 3.71875, 4.15625, 4.25, 3.890625, 4.09375, 3.90625, 3.921875, 4.15625, 4.1875, 3.875, 3.84375, 3.875, 4.25, 4.03125, 3.921875, 4.15625, 3.953125, 3.875, 4.03125, 3.859375, 4.125, 4.0, 4.03125, 3.84375, 3.9375, 3.984375, 3.796875, 3.796875, 4.09375, 4.125, 3.96875, 4.0, 4.03125, 4.09375, 4.0, 3.6875, 3.765625, 3.75, 3.78125, 3.9375, 4.0625, 3.90625, 3.921875, 4.0625, 3.875, 3.84375, 4.03125, 3.765625, 4.03125, 3.9375, 4.03125, 3.953125, 3.8125, 4.09375, 3.828125, 3.75, 3.875, 3.875, 3.859375, 3.78125, 3.71875, 3.75, 3.6875, 4.25, 4.1875, 4.0, 3.796875, 3.84375, 3.78125, 3.921875, 4.0625, 3.796875, 3.9375, 3.84375, 3.78125, 3.828125, 4.0625, 3.5625, 3.9375, 3.625, 3.828125, 3.90625, 3.984375, 3.875, 3.90625, 3.875, 4.15625, 3.875, 4.03125, 4.0, 3.890625, 4.0625, 4.0, 3.875, 4.125, 3.96875, 3.84375, 3.921875, 4.0, 3.875, 3.625, 3.953125, 3.6875, 4.0, 3.546875, 3.5625, 3.828125, 4.125, 3.921875, 3.859375, 4.0, 3.78125, 4.0625, 3.890625, 3.875, 3.78125, 3.640625, 3.875, 3.734375, 3.765625, 3.953125, 4.03125, 3.734375, 3.890625, 3.828125, 3.859375, 3.890625, 3.71875, 3.953125, 3.875, 3.90625, 4.0, 4.03125, 3.953125, 3.71875, 3.671875, 3.875, 3.84375, 3.71875, 3.8125, 3.78125, 3.84375, 3.734375, 3.90625, 3.65625, 3.796875, 4.0, 3.75, 3.734375, 3.953125, 3.59375, 3.75, 3.625, 3.703125, 3.734375, 3.75, 3.8125, 3.953125, 3.78125, 3.859375, 3.734375, 3.859375, 3.875, 3.6875, 3.5625, 3.890625, 3.609375, 3.71875, 3.75, 3.65625, 3.875, 3.6875, 3.765625, 3.734375, 3.703125, 3.84375, 3.859375, 3.921875, 3.71875, 3.921875, 3.90625, 3.9375, 3.765625, 3.796875, 3.609375, 3.703125, 3.5625, 4.03125, 3.953125, 3.890625, 3.921875, 3.6875, 3.5, 3.84375, 3.71875, 3.703125, 3.53125, 3.890625, 3.6875, 3.734375, 3.78125, 3.5, 3.5, 3.75, 3.625, 3.734375, 3.734375, 3.6875, 3.65625, 3.546875, 3.65625, 3.796875, 3.796875, 3.828125, 3.640625, 3.71875, 3.703125, 3.859375, 3.65625, 3.75, 3.5, 3.703125, 3.796875, 3.65625, 3.5, 3.671875, 3.765625, 3.796875, 3.765625, 3.6875, 3.765625, 3.546875, 3.578125, 3.765625, 3.90625, 3.734375, 3.84375, 3.796875, 3.484375, 3.765625, 3.890625, 3.46875, 3.6875, 3.609375, 3.5625, 3.828125, 3.65625, 3.875, 3.546875, 3.828125, 3.8125, 3.734375, 3.578125, 3.703125, 3.96875, 3.9375, 3.921875, 3.546875, 3.46875, 4.03125, 3.921875, 3.671875, 3.875, 3.984375, 3.8125, 3.796875, 3.765625, 3.640625, 3.875, 3.734375, 3.703125, 3.65625, 3.84375, 3.75, 3.78125, 3.703125, 3.578125, 3.921875, 3.578125, 3.953125, 3.796875, 3.75, 3.859375, 3.546875, 3.78125, 3.59375, 3.453125, 3.671875, 3.671875, 3.71875, 3.734375, 3.640625, 3.75, 3.625, 3.84375, 3.703125, 3.734375, 3.59375, 3.78125, 3.546875, 3.71875, 3.78125, 3.859375, 3.671875, 3.34375, 3.75, 3.71875, 3.546875, 3.75, 3.765625, 3.453125, 3.703125, 3.75, 3.53125, 3.609375, 3.796875, 3.65625, 3.859375, 3.9375, 3.734375, 3.6875, 3.625, 3.46875, 3.5, 3.546875, 3.75, 3.625, 3.640625, 3.546875, 3.59375, 3.75, 3.578125, 3.609375, 3.59375, 3.65625, 3.53125, 3.765625, 3.796875, 3.703125, 3.765625, 3.578125, 3.609375, 3.765625, 3.53125, 3.84375, 3.625, 3.640625, 3.703125, 3.4375, 3.75, 3.75, 3.625, 3.53125, 3.8125, 3.78125, 3.46875, 3.671875, 3.84375, 3.671875, 3.84375, 3.71875, 3.421875, 3.734375, 3.671875, 3.453125, 3.46875, 3.546875, 3.640625, 3.65625, 3.71875, 3.6875, 3.671875, 3.53125, 3.703125, 3.546875, 3.703125, 3.6875, 3.390625, 3.5625, 3.59375, 3.390625, 3.703125, 3.75, 3.71875, 3.765625, 3.75, 3.84375, 3.796875, 3.546875, 3.484375, 3.59375, 3.921875, 3.71875, 3.71875, 3.984375, 3.734375, 3.65625, 3.65625, 3.4375, 3.9375, 3.796875, 3.703125, 3.75, 3.75, 3.9375, 3.65625, 3.5, 3.59375, 3.53125, 3.671875, 3.609375, 3.734375, 3.6875, 3.515625, 3.609375, 3.59375, 3.96875, 3.640625, 3.671875, 3.5625, 3.53125, 3.828125, 3.84375, 3.578125, 3.65625, 3.875, 3.734375, 3.828125, 3.640625, 3.640625, 3.375, 3.453125, 3.828125, 3.953125, 3.96875, 3.953125, 3.625, 3.859375, 4.03125, 3.765625, 4.03125, 3.671875, 4.0, 3.953125, 3.59375, 3.828125, 3.859375, 3.734375, 3.59375, 3.765625, 3.734375, 3.71875, 3.609375, 3.484375, 3.84375, 3.703125, 3.828125, 3.84375, 3.5, 3.71875, 3.65625, 3.84375, 3.78125, 3.75, 3.90625, 3.78125, 3.90625, 3.765625, 3.90625, 3.671875, 3.75, 3.703125, 3.5625, 3.671875, 3.59375, 3.6875, 3.375, 3.828125, 3.6875, 3.734375, 3.8125, 3.71875, 3.53125, 3.984375, 3.953125, 3.796875, 3.640625, 3.859375, 3.484375, 3.671875, 3.84375, 3.796875, 3.828125, 3.515625, 3.484375, 3.859375, 3.46875, 3.40625, 3.4375, 3.734375, 3.609375, 3.578125, 3.609375, 3.625, 3.578125, 3.84375, 3.796875, 3.375, 3.921875, 3.734375, 3.625, 3.671875, 3.671875, 3.734375, 3.796875, 3.546875, 3.546875, 3.890625, 3.625, 3.546875, 3.8125, 3.78125, 3.734375, 3.65625, 3.6875, 3.671875, 3.78125, 3.546875, 3.625, 3.8125, 3.8125, 3.671875, 3.828125, 3.671875, 3.34375, 3.828125, 3.5625, 3.796875, 3.484375, 3.5625, 3.6875, 3.671875, 3.5, 3.625, 3.546875, 3.734375, 3.65625, 3.71875, 3.59375, 3.484375, 3.796875, 3.734375, 3.703125, 3.65625, 3.5625, 3.5, 3.609375, 3.4375, 3.734375, 3.59375, 3.515625, 3.59375, 3.46875, 3.453125, 3.390625, 3.59375, 3.75, 3.78125, 3.65625, 3.53125, 3.390625, 3.5625, 3.640625, 3.59375, 3.765625, 3.453125, 3.375, 3.515625, 3.6875, 3.625, 3.65625, 3.421875, 3.578125, 3.671875, 3.75, 3.625, 3.46875, 3.765625, 3.765625, 3.5625, 3.5, 3.546875, 3.625, 3.4375, 3.375, 3.765625, 3.5625, 3.671875, 3.484375, 3.484375, 3.59375, 3.4375, 3.6875, 3.65625, 3.4375, 3.5625, 3.71875, 3.484375, 3.453125, 3.4375, 3.6875, 3.703125, 3.625, 3.765625, 3.609375, 3.46875, 3.671875, 3.46875, 3.78125, 3.5, 3.734375, 3.359375, 3.640625, 3.4375, 3.59375, 3.484375, 3.640625, 3.609375, 3.328125, 3.828125, 3.390625, 3.328125, 3.46875, 3.625, 3.3125, 3.375, 3.546875, 3.546875, 3.40625, 3.546875, 3.546875, 3.59375, 3.484375, 3.578125, 3.625, 3.6875, 3.40625, 3.25, 3.625, 3.78125, 3.625, 3.578125, 3.640625, 3.765625, 3.671875, 3.703125, 3.640625, 3.703125, 3.4375, 3.578125, 3.8125, 3.5, 3.4375, 3.65625, 3.59375, 3.484375, 3.484375, 3.4375, 3.609375, 3.78125, 3.578125, 3.46875, 3.578125, 3.625, 3.6875, 3.390625, 3.625, 3.65625, 3.40625, 3.5, 3.609375, 3.484375, 3.609375, 3.46875, 3.625, 3.421875, 3.75, 3.578125, 3.40625, 3.53125, 3.375, 3.53125, 3.4375, 3.40625, 3.421875, 3.453125, 3.453125, 3.703125, 3.375, 3.609375, 3.640625, 3.625, 3.65625, 3.65625, 3.296875, 3.484375, 3.453125, 3.609375, 3.46875, 3.453125, 3.828125, 3.65625, 3.296875, 3.484375, 3.578125, 3.34375, 3.46875, 3.515625, 3.734375, 3.765625, 3.34375, 3.34375, 3.1875, 3.515625, 3.625, 3.5625, 3.265625, 3.59375, 3.609375, 3.421875, 3.5, 3.453125, 3.625, 3.640625, 3.5, 3.234375, 3.453125, 3.515625, 3.4375, 3.671875, 3.59375, 3.453125, 3.65625, 3.5625, 3.265625, 3.671875, 3.59375, 3.671875, 3.390625, 3.40625, 3.515625, 3.234375, 3.453125, 3.296875, 3.28125, 3.59375, 3.671875, 3.515625, 3.59375, 3.546875, 3.484375, 3.546875, 3.46875, 3.640625, 3.578125, 3.40625, 3.453125, 3.484375, 3.34375, 3.515625, 3.578125, 3.625, 3.78125, 3.515625, 3.640625, 3.515625, 3.71875, 3.546875, 3.609375, 3.5, 3.75, 3.46875, 3.78125, 3.578125, 3.3125, 3.546875, 3.328125, 3.640625, 3.640625, 3.625, 3.40625, 3.390625, 3.34375, 3.296875, 3.625, 3.5, 3.453125, 3.5, 3.65625, 3.265625, 3.546875, 3.46875, 3.421875, 3.390625, 3.390625, 3.640625, 3.484375, 3.5625, 3.625, 3.578125, 3.53125, 3.453125, 3.765625, 3.53125, 3.65625, 3.390625, 3.328125, 3.515625, 3.34375, 3.484375, 3.59375, 3.453125, 3.28125, 3.21875, 3.328125, 3.484375, 3.5, 3.46875, 3.328125, 3.625, 3.328125, 3.640625, 3.484375, 3.4375, 3.234375, 3.40625, 3.515625, 3.3125, 3.5, 3.609375, 3.28125, 3.390625, 3.40625, 3.4375, 3.5, 3.484375, 3.1875, 3.484375, 3.734375, 3.46875, 3.609375, 3.578125, 3.078125, 3.4375, 3.53125, 3.5625, 3.734375, 3.59375, 3.484375, 3.65625, 3.546875, 3.40625, 3.578125, 3.53125, 3.390625, 3.484375, 3.484375, 3.5, 3.4375, 3.359375, 3.59375, 3.4375, 3.3125, 3.578125, 3.59375, 3.5625, 3.4375, 3.484375, 3.6875, 3.21875, 3.203125, 3.4375, 3.5, 3.3125, 3.390625, 3.515625, 3.203125, 3.390625, 3.234375, 3.46875, 3.328125, 3.390625, 3.28125, 3.59375, 3.515625, 3.59375, 3.390625, 3.421875, 3.421875, 3.640625, 3.359375, 3.40625, 3.734375, 3.734375, 3.4375, 3.421875, 3.65625, 3.53125, 3.34375, 3.53125, 3.625, 3.53125, 3.640625, 3.59375, 3.421875, 3.359375, 3.546875, 3.515625, 3.703125, 3.375, 3.40625, 3.296875, 3.421875, 3.21875, 3.359375, 3.421875, 3.40625, 3.625, 3.46875, 3.515625, 3.59375, 3.671875, 3.46875, 3.640625, 3.53125, 3.34375, 3.734375, 3.578125, 3.5, 3.609375, 3.65625, 3.390625, 3.671875, 3.453125, 3.484375, 3.390625, 3.390625, 3.40625, 3.328125, 3.578125, 3.328125, 3.578125, 3.65625, 3.46875, 3.453125, 3.5, 3.390625, 3.71875, 3.28125, 3.421875, 3.484375, 3.484375, 3.265625, 3.359375, 3.390625, 3.34375, 3.578125, 3.421875, 3.703125, 3.5, 3.3125, 3.265625, 3.484375, 3.3125, 3.40625, 3.3125, 3.59375, 3.671875, 3.5625, 3.5625, 3.515625, 3.53125, 3.171875, 3.421875, 3.3125, 3.65625, 3.203125, 3.46875, 3.3125, 3.546875, 3.5, 3.40625, 3.515625, 3.46875, 3.53125, 3.59375, 3.5, 3.53125, 3.46875, 3.328125, 3.265625, 3.765625, 3.671875, 3.46875, 3.640625, 3.578125, 3.46875, 3.34375, 3.5625, 3.484375, 3.34375, 3.515625, 3.5, 3.53125, 3.4375, 3.421875, 3.234375, 3.484375, 3.421875, 3.578125, 3.5625, 3.46875, 3.5, 3.4375, 3.6875, 3.65625, 3.421875, 3.65625, 3.484375, 3.5625, 3.46875, 3.765625, 3.40625, 3.4375, 3.359375, 3.21875, 3.59375, 3.234375, 3.5, 3.578125, 3.21875, 3.359375, 3.5625, 3.359375, 3.515625, 3.6875, 3.40625, 3.625, 3.4375, 3.546875, 3.453125, 3.0625, 3.59375, 3.609375, 3.4375, 3.734375, 3.609375, 3.671875, 3.65625, 3.375, 3.421875, 3.671875, 3.59375, 3.453125, 3.375, 3.421875, 3.484375, 3.46875, 3.4375, 3.328125, 3.65625, 3.34375, 3.265625, 3.5, 3.4375, 3.546875, 3.125, 3.34375, 3.40625, 3.390625, 3.125, 3.359375, 3.4375, 3.4375, 3.359375, 2.984375, 3.328125, 3.609375, 3.234375, 3.390625, 3.671875, 3.4375, 3.421875, 3.453125, 3.3125, 3.359375, 3.5, 3.203125, 3.59375, 3.421875, 3.5, 3.578125, 3.40625, 3.375, 3.53125, 3.4375, 3.5, 3.546875, 3.359375, 3.6875, 3.4375, 3.5, 3.578125, 3.59375, 3.25, 3.390625, 3.375, 3.5, 3.109375, 3.4375, 3.453125, 3.390625, 3.671875, 3.53125, 3.265625, 3.46875, 3.3125, 3.5625, 3.21875, 3.25, 3.640625, 3.453125, 3.265625, 3.453125, 3.203125, 3.296875, 3.546875, 3.3125, 3.3125, 3.53125, 3.484375, 3.296875, 3.4375, 3.09375, 3.125, 3.25, 3.359375, 3.296875, 3.390625, 3.40625, 3.5625, 3.296875, 3.421875, 3.515625, 3.65625, 3.421875, 3.53125, 3.359375, 3.140625, 3.28125, 3.28125, 3.5, 3.609375, 3.53125, 3.328125, 3.546875, 3.28125, 2.96875, 3.390625, 3.53125, 3.4375, 3.4375, 3.234375, 3.5, 3.234375, 3.375, 3.390625, 3.421875, 3.578125, 3.359375, 3.234375, 3.203125, 3.625, 3.65625, 3.34375, 3.1875, 3.65625, 3.40625, 3.15625, 3.390625, 3.515625, 3.484375, 3.296875, 3.453125, 3.25, 3.375, 3.5, 3.515625, 3.390625, 3.453125, 3.5625, 3.625, 3.328125, 3.15625, 3.59375, 3.234375, 3.515625, 3.359375, 3.4375, 3.296875, 3.5625, 3.03125, 3.3125, 3.484375, 3.375, 3.375, 3.359375, 3.46875, 3.375, 3.34375, 3.609375, 3.328125, 3.140625, 3.21875, 3.640625, 3.484375, 3.0625, 3.265625, 3.53125, 3.421875, 3.625, 3.34375, 3.703125, 3.359375, 3.5625, 3.40625, 3.296875, 3.15625, 3.40625, 3.40625, 3.453125, 3.609375, 3.421875, 3.421875, 3.453125, 3.40625, 3.453125, 3.34375, 3.46875, 3.5, 3.28125, 3.578125, 3.171875, 3.375, 3.265625, 3.59375, 3.296875, 3.328125, 3.203125, 3.296875, 3.390625, 3.09375, 3.21875, 3.484375, 3.4375, 3.359375, 3.484375, 3.40625, 3.234375, 3.34375, 3.296875, 3.5, 3.5625, 3.71875, 3.53125, 3.4375, 3.203125, 3.40625, 3.578125, 3.390625, 3.34375, 3.578125, 3.328125, 3.3125, 3.234375, 3.140625, 3.515625, 3.359375, 3.453125, 3.3125, 3.125, 3.203125, 3.359375, 3.40625, 3.234375, 3.640625, 3.28125, 3.40625, 3.15625, 3.328125, 3.421875, 3.15625, 3.53125, 3.515625, 3.34375, 3.21875, 3.265625, 3.265625, 3.65625, 3.421875, 3.328125, 3.390625, 3.359375, 3.546875, 3.0625, 3.296875, 3.453125, 3.40625, 3.328125, 3.15625, 3.296875, 3.234375, 3.4375, 3.140625, 3.171875, 3.328125, 3.328125, 3.25, 3.421875, 3.359375, 3.28125, 3.25, 3.3125, 3.375, 3.34375, 3.25, 3.4375, 3.5, 3.140625, 3.53125, 3.1875, 3.265625, 3.09375, 3.4375, 3.234375, 3.3125, 3.296875, 3.4375, 3.28125, 3.078125, 3.46875, 3.484375, 3.34375, 3.03125, 3.375, 3.4375, 3.078125, 3.421875, 3.5625, 3.609375, 3.296875, 3.34375, 3.3125, 3.390625, 3.546875, 3.3125, 3.265625, 3.46875, 3.40625, 3.46875, 3.5, 3.40625, 3.5, 3.28125, 3.328125, 3.453125, 3.421875, 3.296875, 3.328125, 3.28125, 3.234375, 3.578125, 3.28125, 3.34375, 3.125, 3.359375, 3.46875, 3.234375, 3.296875, 3.46875, 3.359375, 3.421875, 3.4375, 3.359375, 3.546875, 3.390625, 3.421875, 3.28125, 3.46875, 3.390625, 3.328125, 3.359375, 3.3125, 3.484375, 3.34375, 3.390625, 3.53125, 3.125, 3.5625, 3.421875, 3.265625, 3.359375, 3.359375, 3.375, 3.4375, 3.328125, 3.125, 3.140625, 3.359375, 3.34375, 3.375, 3.515625, 3.46875, 3.25, 3.171875, 3.078125, 3.21875, 3.359375, 3.34375, 3.140625, 3.34375, 3.421875, 3.40625, 3.359375, 3.265625, 3.234375, 3.453125, 3.109375, 3.46875, 3.1875, 3.40625, 3.28125, 3.53125, 3.140625, 3.15625, 3.3125, 3.390625, 3.390625, 3.296875, 3.359375, 3.328125, 3.34375, 3.25, 3.34375, 3.28125, 2.953125, 3.375, 3.359375, 3.265625, 3.40625, 3.453125, 3.359375, 3.203125, 3.203125, 3.515625, 3.109375, 3.25, 3.125, 3.53125, 3.53125, 3.46875, 3.4375, 3.3125, 3.234375, 3.46875, 2.96875, 3.359375, 3.203125, 3.296875, 3.28125, 3.21875, 3.140625, 3.390625, 3.34375, 3.453125, 3.40625, 3.203125, 3.328125, 3.234375, 3.296875, 3.421875, 3.28125, 3.65625, 3.234375, 3.328125, 3.296875, 3.328125, 3.25, 3.4375, 3.109375, 3.1875, 3.46875, 3.21875, 3.4375, 3.375, 3.3125, 3.421875, 3.234375, 3.265625, 3.640625, 3.359375, 3.34375, 3.3125, 3.359375, 3.21875, 3.296875, 3.3125, 3.265625, 3.515625, 3.5]","[56320.0, 2640.0, 1248.0, 828.0, 884.0, 688.0, 732.0, 588.0, 588.0, 664.0, 588.0, 588.0, 588.0, 444.0, 536.0, 430.0, 392.0, 404.0, 404.0, 444.0, 416.0, 334.0, 368.0, 334.0, 368.0, 314.0, 324.0, 334.0, 334.0, 253.0, 314.0, 334.0, 237.0, 304.0, 253.0, 260.0, 253.0, 253.0, 230.0, 237.0, 253.0, 223.0, 237.0, 191.0, 223.0, 230.0, 230.0, 203.0, 237.0, 203.0, 245.0, 209.0, 245.0, 216.0, 185.0, 197.0, 185.0, 223.0, 185.0, 179.0, 223.0, 203.0, 185.0, 203.0, 209.0, 153.0, 174.0, 168.0, 216.0, 168.0, 135.0, 131.0, 127.0, 174.0, 144.0, 158.0, 149.0, 144.0, 158.0, 149.0, 127.0, 153.0, 153.0, 149.0, 149.0, 135.0, 102.0, 153.0, 127.0, 108.5, 135.0, 149.0, 123.0, 163.0, 149.0, 158.0, 131.0, 158.0, 144.0, 108.5, 158.0, 119.5, 135.0, 108.5, 115.5, 112.0, 123.0, 105.5, 131.0, 115.5, 102.0, 90.0, 105.5, 102.0, 93.0, 102.0, 115.5, 93.0, 102.0, 102.0, 90.0, 102.0, 99.0, 93.0, 96.0, 108.5, 90.0, 99.0, 102.0, 105.5, 102.0, 96.0, 82.0, 105.5, 87.5, 105.5, 90.0, 93.0, 79.5, 102.0, 82.0, 77.0, 74.5, 70.0, 68.0, 72.5, 102.0, 84.5, 90.0, 84.5, 96.0, 84.5, 79.5, 74.5, 72.5, 68.0, 77.0, 96.0, 84.5, 84.5, 82.0, 82.0, 79.5, 64.0, 77.0, 74.5, 82.0, 64.0, 79.5, 60.0, 68.0, 79.5, 90.0, 58.25, 72.5, 72.5, 87.5, 70.0, 74.5, 87.5, 64.0, 68.0, 90.0, 64.0, 74.5, 84.5, 96.0, 70.0, 87.5, 82.0, 74.5, 74.5, 60.0, 72.5, 70.0, 68.0, 72.5, 77.0, 72.5, 66.0, 64.0, 87.5, 64.0, 58.25, 68.0, 70.0, 66.0, 90.0, 60.0, 66.0, 82.0, 74.5, 68.0, 60.0, 58.25, 79.5, 84.5, 70.0, 72.5, 68.0, 74.5, 60.0, 72.5, 58.25, 53.75, 60.0, 72.5, 64.0, 52.25, 62.0, 77.0, 58.25, 52.25, 62.0, 72.5, 64.0, 53.75, 50.5, 64.0, 43.25, 53.0, 64.0, 50.5, 48.25, 66.0, 64.0, 72.5, 51.25, 60.0, 50.5, 52.25, 70.0, 62.0, 49.0, 51.25, 62.0, 60.0, 60.0, 52.25, 53.75, 53.75, 50.5, 64.0, 50.5, 64.0, 48.25, 58.25, 60.0, 64.0, 49.0, 58.25, 64.0, 49.75, 60.0, 60.0, 70.0, 56.25, 56.25, 62.0, 54.75, 62.0, 60.0, 54.75, 64.0, 60.0, 58.25, 60.0, 53.0, 60.0, 42.5, 48.25, 60.0, 60.0, 49.75, 56.25, 53.75, 53.0, 64.0, 66.0, 45.25, 51.25, 56.25, 60.0, 56.25, 47.5, 66.0, 64.0, 60.0, 58.25, 66.0, 48.25, 56.25, 49.75, 62.0, 72.5, 52.25, 53.0, 42.0, 53.75, 53.0, 48.25, 51.25, 62.0, 58.25, 60.0, 49.75, 50.5, 49.0, 72.5, 54.75, 64.0, 46.0, 51.25, 54.75, 42.0, 60.0, 54.75, 53.75, 47.5, 62.0, 68.0, 41.25, 64.0, 70.0, 49.0, 60.0, 49.75, 50.5, 64.0, 66.0, 48.25, 46.75, 48.25, 70.0, 56.25, 50.5, 64.0, 52.25, 48.25, 56.25, 47.5, 62.0, 54.75, 56.25, 46.75, 51.25, 53.75, 44.5, 44.5, 60.0, 62.0, 53.0, 54.75, 56.25, 60.0, 54.75, 40.0, 43.25, 42.5, 44.0, 51.25, 58.25, 49.75, 50.5, 58.25, 48.25, 46.75, 56.25, 43.25, 56.25, 51.25, 56.25, 52.25, 45.25, 60.0, 46.0, 42.5, 48.25, 48.25, 47.5, 44.0, 41.25, 42.5, 40.0, 70.0, 66.0, 54.75, 44.5, 46.75, 44.0, 50.5, 58.25, 44.5, 51.25, 46.75, 44.0, 46.0, 58.25, 35.25, 51.25, 37.5, 46.0, 49.75, 53.75, 48.25, 49.75, 48.25, 64.0, 48.25, 56.25, 54.75, 49.0, 58.25, 54.75, 48.25, 62.0, 53.0, 46.75, 50.5, 54.75, 48.25, 37.5, 52.25, 40.0, 54.75, 34.75, 35.25, 46.0, 62.0, 50.5, 47.5, 54.75, 44.0, 58.25, 49.0, 48.25, 44.0, 38.25, 48.25, 42.0, 43.25, 52.25, 56.25, 42.0, 49.0, 46.0, 47.5, 49.0, 41.25, 52.25, 48.25, 49.75, 54.75, 56.25, 52.25, 41.25, 39.25, 48.25, 46.75, 41.25, 45.25, 44.0, 46.75, 42.0, 49.75, 38.75, 44.5, 54.75, 42.5, 42.0, 52.25, 36.5, 42.5, 37.5, 40.5, 42.0, 42.5, 45.25, 52.25, 44.0, 47.5, 42.0, 47.5, 48.25, 40.0, 35.25, 49.0, 37.0, 41.25, 42.5, 38.75, 48.25, 40.0, 43.25, 42.0, 40.5, 46.75, 47.5, 50.5, 41.25, 50.5, 49.75, 51.25, 43.25, 44.5, 37.0, 40.5, 35.25, 56.25, 52.25, 49.0, 50.5, 40.0, 33.25, 46.75, 41.25, 40.5, 34.25, 49.0, 40.0, 42.0, 44.0, 33.25, 33.25, 42.5, 37.5, 42.0, 42.0, 40.0, 38.75, 34.75, 38.75, 44.5, 44.5, 46.0, 38.25, 41.25, 40.5, 47.5, 38.75, 42.5, 33.25, 40.5, 44.5, 38.75, 33.25, 39.25, 43.25, 44.5, 43.25, 40.0, 43.25, 34.75, 35.75, 43.25, 49.75, 42.0, 46.75, 44.5, 32.5, 43.25, 49.0, 32.0, 40.0, 37.0, 35.25, 46.0, 38.75, 48.25, 34.75, 46.0, 45.25, 42.0, 35.75, 40.5, 53.0, 51.25, 50.5, 34.75, 32.0, 56.25, 50.5, 39.25, 48.25, 53.75, 45.25, 44.5, 43.25, 38.25, 48.25, 42.0, 40.5, 38.75, 46.75, 42.5, 44.0, 40.5, 35.75, 50.5, 35.75, 52.25, 44.5, 42.5, 47.5, 34.75, 44.0, 36.5, 31.625, 39.25, 39.25, 41.25, 42.0, 38.25, 42.5, 37.5, 46.75, 40.5, 42.0, 36.5, 44.0, 34.75, 41.25, 44.0, 47.5, 39.25, 28.375, 42.5, 41.25, 34.75, 42.5, 43.25, 31.625, 40.5, 42.5, 34.25, 37.0, 44.5, 38.75, 47.5, 51.25, 42.0, 40.0, 37.5, 32.0, 33.25, 34.75, 42.5, 37.5, 38.25, 34.75, 36.5, 42.5, 35.75, 37.0, 36.5, 38.75, 34.25, 43.25, 44.5, 40.5, 43.25, 35.75, 37.0, 43.25, 34.25, 46.75, 37.5, 38.25, 40.5, 31.125, 42.5, 42.5, 37.5, 34.25, 45.25, 44.0, 32.0, 39.25, 46.75, 39.25, 46.75, 41.25, 30.625, 42.0, 39.25, 31.625, 32.0, 34.75, 38.25, 38.75, 41.25, 40.0, 39.25, 34.25, 40.5, 34.75, 40.5, 40.0, 29.75, 35.25, 36.5, 29.75, 40.5, 42.5, 41.25, 43.25, 42.5, 46.75, 44.5, 34.75, 32.5, 36.5, 50.5, 41.25, 41.25, 53.75, 42.0, 38.75, 38.75, 31.125, 51.25, 44.5, 40.5, 42.5, 42.5, 51.25, 38.75, 33.25, 36.5, 34.25, 39.25, 37.0, 42.0, 40.0, 33.75, 37.0, 36.5, 53.0, 38.25, 39.25, 35.25, 34.25, 46.0, 46.75, 35.75, 38.75, 48.25, 42.0, 46.0, 38.25, 38.25, 29.25, 31.625, 46.0, 52.25, 53.0, 52.25, 37.5, 47.5, 56.25, 43.25, 56.25, 39.25, 54.75, 52.25, 36.5, 46.0, 47.5, 42.0, 36.5, 43.25, 42.0, 41.25, 37.0, 32.5, 46.75, 40.5, 46.0, 46.75, 33.25, 41.25, 38.75, 46.75, 44.0, 42.5, 49.75, 44.0, 49.75, 43.25, 49.75, 39.25, 42.5, 40.5, 35.25, 39.25, 36.5, 40.0, 29.25, 46.0, 40.0, 42.0, 45.25, 41.25, 34.25, 53.75, 52.25, 44.5, 38.25, 47.5, 32.5, 39.25, 46.75, 44.5, 46.0, 33.75, 32.5, 47.5, 32.0, 30.125, 31.125, 42.0, 37.0, 35.75, 37.0, 37.5, 35.75, 46.75, 44.5, 29.25, 50.5, 42.0, 37.5, 39.25, 39.25, 42.0, 44.5, 34.75, 34.75, 49.0, 37.5, 34.75, 45.25, 44.0, 42.0, 38.75, 40.0, 39.25, 44.0, 34.75, 37.5, 45.25, 45.25, 39.25, 46.0, 39.25, 28.375, 46.0, 35.25, 44.5, 32.5, 35.25, 40.0, 39.25, 33.25, 37.5, 34.75, 42.0, 38.75, 41.25, 36.5, 32.5, 44.5, 42.0, 40.5, 38.75, 35.25, 33.25, 37.0, 31.125, 42.0, 36.5, 33.75, 36.5, 32.0, 31.625, 29.75, 36.5, 42.5, 44.0, 38.75, 34.25, 29.75, 35.25, 38.25, 36.5, 43.25, 31.625, 29.25, 33.75, 40.0, 37.5, 38.75, 30.625, 35.75, 39.25, 42.5, 37.5, 32.0, 43.25, 43.25, 35.25, 33.25, 34.75, 37.5, 31.125, 29.25, 43.25, 35.25, 39.25, 32.5, 32.5, 36.5, 31.125, 40.0, 38.75, 31.125, 35.25, 41.25, 32.5, 31.625, 31.125, 40.0, 40.5, 37.5, 43.25, 37.0, 32.0, 39.25, 32.0, 44.0, 33.25, 42.0, 28.75, 38.25, 31.125, 36.5, 32.5, 38.25, 37.0, 27.875, 46.0, 29.75, 27.875, 32.0, 37.5, 27.5, 29.25, 34.75, 34.75, 30.125, 34.75, 34.75, 36.5, 32.5, 35.75, 37.5, 40.0, 30.125, 25.75, 37.5, 44.0, 37.5, 35.75, 38.25, 43.25, 39.25, 40.5, 38.25, 40.5, 31.125, 35.75, 45.25, 33.25, 31.125, 38.75, 36.5, 32.5, 32.5, 31.125, 37.0, 44.0, 35.75, 32.0, 35.75, 37.5, 40.0, 29.75, 37.5, 38.75, 30.125, 33.25, 37.0, 32.5, 37.0, 32.0, 37.5, 30.625, 42.5, 35.75, 30.125, 34.25, 29.25, 34.25, 31.125, 30.125, 30.625, 31.625, 31.625, 40.5, 29.25, 37.0, 38.25, 37.5, 38.75, 38.75, 27.0, 32.5, 31.625, 37.0, 32.0, 31.625, 46.0, 38.75, 27.0, 32.5, 35.75, 28.375, 32.0, 33.75, 42.0, 43.25, 28.375, 28.375, 24.25, 33.75, 37.5, 35.25, 26.25, 36.5, 37.0, 30.625, 33.25, 31.625, 37.5, 38.25, 33.25, 25.375, 31.625, 33.75, 31.125, 39.25, 36.5, 31.625, 38.75, 35.25, 26.25, 39.25, 36.5, 39.25, 29.75, 30.125, 33.75, 25.375, 31.625, 27.0, 26.625, 36.5, 39.25, 33.75, 36.5, 34.75, 32.5, 34.75, 32.0, 38.25, 35.75, 30.125, 31.625, 32.5, 28.375, 33.75, 35.75, 37.5, 44.0, 33.75, 38.25, 33.75, 41.25, 34.75, 37.0, 33.25, 42.5, 32.0, 44.0, 35.75, 27.5, 34.75, 27.875, 38.25, 38.25, 37.5, 30.125, 29.75, 28.375, 27.0, 37.5, 33.25, 31.625, 33.25, 38.75, 26.25, 34.75, 32.0, 30.625, 29.75, 29.75, 38.25, 32.5, 35.25, 37.5, 35.75, 34.25, 31.625, 43.25, 34.25, 38.75, 29.75, 27.875, 33.75, 28.375, 32.5, 36.5, 31.625, 26.625, 25.0, 27.875, 32.5, 33.25, 32.0, 27.875, 37.5, 27.875, 38.25, 32.5, 31.125, 25.375, 30.125, 33.75, 27.5, 33.25, 37.0, 26.625, 29.75, 30.125, 31.125, 33.25, 32.5, 24.25, 32.5, 42.0, 32.0, 37.0, 35.75, 21.75, 31.125, 34.25, 35.25, 42.0, 36.5, 32.5, 38.75, 34.75, 30.125, 35.75, 34.25, 29.75, 32.5, 32.5, 33.25, 31.125, 28.75, 36.5, 31.125, 27.5, 35.75, 36.5, 35.25, 31.125, 32.5, 40.0, 25.0, 24.625, 31.125, 33.25, 27.5, 29.75, 33.75, 24.625, 29.75, 25.375, 32.0, 27.875, 29.75, 26.625, 36.5, 33.75, 36.5, 29.75, 30.625, 30.625, 38.25, 28.75, 30.125, 42.0, 42.0, 31.125, 30.625, 38.75, 34.25, 28.375, 34.25, 37.5, 34.25, 38.25, 36.5, 30.625, 28.75, 34.75, 33.75, 40.5, 29.25, 30.125, 27.0, 30.625, 25.0, 28.75, 30.625, 30.125, 37.5, 32.0, 33.75, 36.5, 39.25, 32.0, 38.25, 34.25, 28.375, 42.0, 35.75, 33.25, 37.0, 38.75, 29.75, 39.25, 31.625, 32.5, 29.75, 29.75, 30.125, 27.875, 35.75, 27.875, 35.75, 38.75, 32.0, 31.625, 33.25, 29.75, 41.25, 26.625, 30.625, 32.5, 32.5, 26.25, 28.75, 29.75, 28.375, 35.75, 30.625, 40.5, 33.25, 27.5, 26.25, 32.5, 27.5, 30.125, 27.5, 36.5, 39.25, 35.25, 35.25, 33.75, 34.25, 23.875, 30.625, 27.5, 38.75, 24.625, 32.0, 27.5, 34.75, 33.25, 30.125, 33.75, 32.0, 34.25, 36.5, 33.25, 34.25, 32.0, 27.875, 26.25, 43.25, 39.25, 32.0, 38.25, 35.75, 32.0, 28.375, 35.25, 32.5, 28.375, 33.75, 33.25, 34.25, 31.125, 30.625, 25.375, 32.5, 30.625, 35.75, 35.25, 32.0, 33.25, 31.125, 40.0, 38.75, 30.625, 38.75, 32.5, 35.25, 32.0, 43.25, 30.125, 31.125, 28.75, 25.0, 36.5, 25.375, 33.25, 35.75, 25.0, 28.75, 35.25, 28.75, 33.75, 40.0, 30.125, 37.5, 31.125, 34.75, 31.625, 21.375, 36.5, 37.0, 31.125, 42.0, 37.0, 39.25, 38.75, 29.25, 30.625, 39.25, 36.5, 31.625, 29.25, 30.625, 32.5, 32.0, 31.125, 27.875, 38.75, 28.375, 26.25, 33.25, 31.125, 34.75, 22.75, 28.375, 30.125, 29.75, 22.75, 28.75, 31.125, 31.125, 28.75, 19.75, 27.875, 37.0, 25.375, 29.75, 39.25, 31.125, 30.625, 31.625, 27.5, 28.75, 33.25, 24.625, 36.5, 30.625, 33.25, 35.75, 30.125, 29.25, 34.25, 31.125, 33.25, 34.75, 28.75, 40.0, 31.125, 33.25, 35.75, 36.5, 25.75, 29.75, 29.25, 33.25, 22.375, 31.125, 31.625, 29.75, 39.25, 34.25, 26.25, 32.0, 27.5, 35.25, 25.0, 25.75, 38.25, 31.625, 26.25, 31.625, 24.625, 27.0, 34.75, 27.5, 27.5, 34.25, 32.5, 27.0, 31.125, 22.125, 22.75, 25.75, 28.75, 27.0, 29.75, 30.125, 35.25, 27.0, 30.625, 33.75, 38.75, 30.625, 34.25, 28.75, 23.125, 26.625, 26.625, 33.25, 37.0, 34.25, 27.875, 34.75, 26.625, 19.5, 29.75, 34.25, 31.125, 31.125, 25.375, 33.25, 25.375, 29.25, 29.75, 30.625, 35.75, 28.75, 25.375, 24.625, 37.5, 38.75, 28.375, 24.25, 38.75, 30.125, 23.5, 29.75, 33.75, 32.5, 27.0, 31.625, 25.75, 29.25, 33.25, 33.75, 29.75, 31.625, 35.25, 37.5, 27.875, 23.5, 36.5, 25.375, 33.75, 28.75, 31.125, 27.0, 35.25, 20.75, 27.5, 32.5, 29.25, 29.25, 28.75, 32.0, 29.25, 28.375, 37.0, 27.875, 23.125, 25.0, 38.25, 32.5, 21.375, 26.25, 34.25, 30.625, 37.5, 28.375, 40.5, 28.75, 35.25, 30.125, 27.0, 23.5, 30.125, 30.125, 31.625, 37.0, 30.625, 30.625, 31.625, 30.125, 31.625, 28.375, 32.0, 33.25, 26.625, 35.75, 23.875, 29.25, 26.25, 36.5, 27.0, 27.875, 24.625, 27.0, 29.75, 22.125, 25.0, 32.5, 31.125, 28.75, 32.5, 30.125, 25.375, 28.375, 27.0, 33.25, 35.25, 41.25, 34.25, 31.125, 24.625, 30.125, 35.75, 29.75, 28.375, 35.75, 27.875, 27.5, 25.375, 23.125, 33.75, 28.75, 31.625, 27.5, 22.75, 24.625, 28.75, 30.125, 25.375, 38.25, 26.625, 30.125, 23.5, 27.875, 30.625, 23.5, 34.25, 33.75, 28.375, 25.0, 26.25, 26.25, 38.75, 30.625, 27.875, 29.75, 28.75, 34.75, 21.375, 27.0, 31.625, 30.125, 27.875, 23.5, 27.0, 25.375, 31.125, 23.125, 23.875, 27.875, 27.875, 25.75, 30.625, 28.75, 26.625, 25.75, 27.5, 29.25, 28.375, 25.75, 31.125, 33.25, 23.125, 34.25, 24.25, 26.25, 22.125, 31.125, 25.375, 27.5, 27.0, 31.125, 26.625, 21.75, 32.0, 32.5, 28.375, 20.75, 29.25, 31.125, 21.75, 30.625, 35.25, 37.0, 27.0, 28.375, 27.5, 29.75, 34.75, 27.5, 26.25, 32.0, 30.125, 32.0, 33.25, 30.125, 33.25, 26.625, 27.875, 31.625, 30.625, 27.0, 27.875, 26.625, 25.375, 35.75, 26.625, 28.375, 22.75, 28.75, 32.0, 25.375, 27.0, 32.0, 28.75, 30.625, 31.125, 28.75, 34.75, 29.75, 30.625, 26.625, 32.0, 29.75, 27.875, 28.75, 27.5, 32.5, 28.375, 29.75, 34.25, 22.75, 35.25, 30.625, 26.25, 28.75, 28.75, 29.25, 31.125, 27.875, 22.75, 23.125, 28.75, 28.375, 29.25, 33.75, 32.0, 25.75, 23.875, 21.75, 25.0, 28.75, 28.375, 23.125, 28.375, 30.625, 30.125, 28.75, 26.25, 25.375, 31.625, 22.375, 32.0, 24.25, 30.125, 26.625, 34.25, 23.125, 23.5, 27.5, 29.75, 29.75, 27.0, 28.75, 27.875, 28.375, 25.75, 28.375, 26.625, 19.125, 29.25, 28.75, 26.25, 30.125, 31.625, 28.75, 24.625, 24.625, 33.75, 22.375, 25.75, 22.75, 34.25, 34.25, 32.0, 31.125, 27.5, 25.375, 32.0, 19.5, 28.75, 24.625, 27.0, 26.625, 25.0, 23.125, 29.75, 28.375, 31.625, 30.125, 24.625, 27.875, 25.375, 27.0, 30.625, 26.625, 38.75, 25.375, 27.875, 27.0, 27.875, 25.75, 31.125, 22.375, 24.25, 32.0, 25.0, 31.125, 29.25, 27.5, 30.625, 25.375, 26.25, 38.25, 28.75, 28.375, 27.5, 28.75, 25.0, 27.0, 27.5, 26.25, 33.75, 33.25]","[10.9375, 7.84375, 7.125, 6.71875, 6.84375, 6.5, 6.6875, 6.40625, 6.375, 6.5, 6.5, 6.34375, 6.40625, 6.15625, 6.3125, 6.03125, 6.0, 6.0, 5.96875, 6.09375, 6.03125, 5.8125, 5.84375, 5.78125, 5.90625, 5.75, 5.8125, 5.78125, 5.8125, 5.53125, 5.75, 5.75, 5.5, 5.6875, 5.5625, 5.65625, 5.53125, 5.53125, 5.5, 5.5, 5.53125, 5.375, 5.5625, 5.3125, 5.34375, 5.40625, 5.46875, 5.3125, 5.40625, 5.28125, 5.375, 5.40625, 5.46875, 5.34375, 5.28125, 5.25, 5.25, 5.3125, 5.15625, 5.125, 5.375, 5.375, 5.25, 5.375, 5.34375, 5.125, 5.125, 5.15625, 5.3125, 5.09375, 4.9375, 5.0, 5.03125, 5.125, 5.03125, 5.09375, 5.03125, 4.96875, 5.0625, 5.09375, 4.84375, 5.0625, 5.1875, 5.0, 5.03125, 4.96875, 4.8125, 5.03125, 4.8125, 4.84375, 4.875, 5.0, 4.6875, 5.125, 4.875, 4.96875, 4.875, 5.125, 4.9375, 4.75, 4.96875, 4.8125, 4.78125, 4.75, 4.75, 4.78125, 4.625, 4.6875, 4.78125, 4.71875, 4.65625, 4.5625, 4.6875, 4.59375, 4.5625, 4.6875, 4.65625, 4.5, 4.65625, 4.625, 4.53125, 4.59375, 4.5625, 4.46875, 4.53125, 4.65625, 4.46875, 4.46875, 4.625, 4.6875, 4.46875, 4.5625, 4.34375, 4.625, 4.40625, 4.6875, 4.53125, 4.5, 4.375, 4.5, 4.46875, 4.28125, 4.375, 4.28125, 4.3125, 4.375, 4.5, 4.34375, 4.375, 4.4375, 4.4375, 4.25, 4.40625, 4.25, 4.40625, 4.25, 4.46875, 4.375, 4.375, 4.34375, 4.375, 4.34375, 4.3125, 4.21875, 4.25, 4.25, 4.28125, 4.15625, 4.25, 4.25, 4.125, 4.3125, 4.4375, 4.21875, 4.21875, 4.09375, 4.3125, 4.3125, 4.25, 4.34375, 4.15625, 4.21875, 4.3125, 4.125, 4.21875, 4.375, 4.40625, 4.3125, 4.375, 4.34375, 4.03125, 4.1875, 4.0625, 4.28125, 4.25, 4.3125, 4.21875, 4.25, 4.125, 4.125, 4.25, 4.21875, 4.1875, 4.03125, 4.125, 4.125, 4.15625, 4.25, 4.0625, 4.09375, 4.21875, 4.3125, 4.09375, 4.125, 4.15625, 4.1875, 4.34375, 4.09375, 4.21875, 4.09375, 4.125, 4.09375, 4.15625, 4.09375, 4.15625, 4.0625, 4.125, 4.125, 4.15625, 4.125, 4.21875, 4.0, 4.0625, 4.03125, 4.09375, 4.09375, 4.03125, 3.984375, 4.09375, 3.828125, 4.0, 3.984375, 3.84375, 3.984375, 3.96875, 4.1875, 4.15625, 3.9375, 4.0, 4.03125, 4.0625, 4.09375, 4.0625, 3.984375, 4.03125, 3.953125, 4.09375, 4.0, 3.984375, 4.09375, 4.09375, 3.953125, 4.03125, 3.96875, 4.0625, 3.9375, 4.0, 4.0625, 4.09375, 3.765625, 3.921875, 4.0625, 3.8125, 3.984375, 4.03125, 4.09375, 4.09375, 3.90625, 4.03125, 3.984375, 4.03125, 4.03125, 3.96875, 3.984375, 4.0625, 4.03125, 4.0625, 3.953125, 4.0, 3.875, 3.890625, 3.90625, 4.0, 3.9375, 4.03125, 3.953125, 3.9375, 4.0, 4.03125, 3.734375, 3.859375, 3.96875, 3.9375, 3.890625, 3.984375, 4.03125, 3.921875, 4.0, 3.859375, 4.03125, 3.984375, 3.90625, 3.828125, 3.984375, 3.9375, 3.90625, 3.921875, 3.828125, 3.890625, 3.921875, 3.8125, 3.796875, 4.0625, 4.03125, 3.90625, 3.96875, 3.890625, 3.78125, 3.96875, 4.03125, 4.03125, 3.84375, 3.9375, 3.90625, 3.78125, 3.953125, 3.890625, 3.890625, 3.859375, 3.921875, 3.984375, 3.640625, 3.96875, 3.984375, 3.796875, 3.96875, 3.796875, 3.796875, 4.0, 3.890625, 3.84375, 3.75, 3.921875, 4.09375, 3.9375, 3.6875, 4.125, 3.78125, 3.84375, 3.96875, 3.78125, 3.921875, 3.921875, 3.921875, 3.78125, 3.84375, 3.921875, 3.9375, 3.78125, 3.984375, 3.75, 3.796875, 3.890625, 3.78125, 3.96875, 3.953125, 3.671875, 3.828125, 3.6875, 3.875, 3.890625, 3.828125, 3.765625, 3.96875, 3.921875, 3.921875, 3.6875, 3.875, 3.703125, 3.84375, 3.953125, 3.8125, 3.890625, 3.828125, 3.765625, 3.875, 3.8125, 3.78125, 3.90625, 3.890625, 3.8125, 3.8125, 3.671875, 3.65625, 4.03125, 3.84375, 3.84375, 3.640625, 3.859375, 3.765625, 3.75, 3.859375, 3.625, 3.78125, 3.8125, 3.859375, 3.734375, 3.78125, 3.765625, 3.78125, 3.78125, 3.5, 3.78125, 3.71875, 3.84375, 3.765625, 3.828125, 3.90625, 3.765625, 3.875, 3.828125, 3.75, 3.90625, 3.765625, 3.6875, 3.859375, 3.8125, 3.828125, 3.765625, 3.765625, 3.6875, 3.734375, 3.890625, 3.75, 3.6875, 3.546875, 3.59375, 3.84375, 3.875, 3.984375, 3.71875, 3.890625, 3.796875, 3.75, 3.625, 3.84375, 3.578125, 3.671875, 3.875, 3.671875, 3.78125, 3.828125, 3.796875, 3.859375, 3.765625, 3.8125, 3.734375, 3.765625, 3.609375, 3.78125, 3.75, 3.765625, 3.953125, 3.90625, 3.796875, 3.609375, 3.640625, 3.828125, 3.640625, 3.703125, 3.734375, 3.84375, 3.890625, 3.78125, 3.71875, 3.703125, 3.734375, 3.78125, 3.796875, 3.6875, 3.859375, 3.6875, 3.78125, 3.671875, 3.71875, 3.84375, 3.734375, 3.71875, 3.8125, 3.765625, 3.796875, 3.671875, 3.84375, 3.828125, 3.734375, 3.625, 3.71875, 3.578125, 3.734375, 3.671875, 3.6875, 3.796875, 3.75, 3.796875, 3.71875, 3.71875, 3.75, 3.859375, 3.78125, 3.625, 3.84375, 3.796875, 3.9375, 3.78125, 3.75, 3.59375, 3.640625, 3.65625, 3.921875, 3.84375, 3.921875, 3.75, 3.5625, 3.546875, 3.765625, 3.75, 3.609375, 3.703125, 3.734375, 3.78125, 3.59375, 3.671875, 3.59375, 3.578125, 3.71875, 3.640625, 3.65625, 3.734375, 3.53125, 3.546875, 3.6875, 3.65625, 3.703125, 3.71875, 3.671875, 3.640625, 3.640625, 3.640625, 3.703125, 3.53125, 3.765625, 3.625, 3.578125, 3.671875, 3.671875, 3.46875, 3.671875, 3.734375, 3.59375, 3.59375, 3.71875, 3.59375, 3.5625, 3.578125, 3.703125, 3.765625, 3.75, 3.765625, 3.609375, 3.390625, 3.71875, 3.75, 3.515625, 3.578125, 3.5625, 3.421875, 3.65625, 3.625, 3.671875, 3.515625, 3.734375, 3.6875, 3.625, 3.5625, 3.703125, 3.78125, 3.8125, 3.6875, 3.59375, 3.484375, 3.8125, 3.640625, 3.625, 3.703125, 3.734375, 3.734375, 3.703125, 3.75, 3.734375, 3.765625, 3.609375, 3.59375, 3.75, 3.8125, 3.578125, 3.59375, 3.75, 3.578125, 3.75, 3.515625, 3.765625, 3.765625, 3.671875, 3.71875, 3.578125, 3.609375, 3.71875, 3.484375, 3.5625, 3.640625, 3.59375, 3.53125, 3.703125, 3.640625, 3.609375, 3.625, 3.625, 3.671875, 3.71875, 3.6875, 3.625, 3.6875, 3.734375, 3.734375, 3.734375, 3.453125, 3.671875, 3.53125, 3.5625, 3.65625, 3.71875, 3.546875, 3.71875, 3.578125, 3.515625, 3.546875, 3.640625, 3.6875, 3.703125, 3.796875, 3.609375, 3.609375, 3.59375, 3.546875, 3.53125, 3.59375, 3.75, 3.59375, 3.515625, 3.546875, 3.53125, 3.828125, 3.515625, 3.59375, 3.53125, 3.578125, 3.5625, 3.640625, 3.546875, 3.65625, 3.65625, 3.578125, 3.578125, 3.546875, 3.578125, 3.734375, 3.65625, 3.53125, 3.703125, 3.5625, 3.65625, 3.71875, 3.640625, 3.421875, 3.65625, 3.6875, 3.484375, 3.609375, 3.59375, 3.59375, 3.59375, 3.625, 3.453125, 3.515625, 3.65625, 3.515625, 3.421875, 3.625, 3.625, 3.4375, 3.734375, 3.625, 3.703125, 3.625, 3.703125, 3.484375, 3.625, 3.6875, 3.25, 3.515625, 3.578125, 3.484375, 3.546875, 3.65625, 3.515625, 3.578125, 3.609375, 3.609375, 3.625, 3.59375, 3.5, 3.515625, 3.71875, 3.640625, 3.578125, 3.65625, 3.59375, 3.5625, 3.5, 3.515625, 3.703125, 3.546875, 3.53125, 3.578125, 3.453125, 3.734375, 3.546875, 3.5, 3.375, 3.515625, 3.625, 3.515625, 3.4375, 3.5625, 3.4375, 3.609375, 3.515625, 3.6875, 3.375, 3.5, 3.453125, 3.4375, 3.75, 3.671875, 3.609375, 3.59375, 3.515625, 3.53125, 3.515625, 3.59375, 3.375, 3.5, 3.4375, 3.515625, 3.703125, 3.578125, 3.53125, 3.546875, 3.609375, 3.578125, 3.546875, 3.71875, 3.484375, 3.65625, 3.59375, 3.40625, 3.515625, 3.65625, 3.515625, 3.515625, 3.5625, 3.59375, 3.609375, 3.453125, 3.46875, 3.625, 3.53125, 3.515625, 3.5625, 3.421875, 3.4375, 3.53125, 3.5625, 3.734375, 3.5, 3.546875, 3.515625, 3.609375, 3.53125, 3.609375, 3.453125, 3.578125, 3.578125, 3.5625, 3.53125, 3.453125, 3.546875, 3.484375, 3.515625, 3.59375, 3.609375, 3.65625, 3.515625, 3.515625, 3.78125, 3.578125, 3.5625, 3.59375, 3.625, 3.484375, 3.5, 3.59375, 3.484375, 3.625, 3.40625, 3.484375, 3.53125, 3.578125, 3.421875, 3.296875, 3.5625, 3.53125, 3.578125, 3.5625, 3.578125, 3.5625, 3.609375, 3.71875, 3.4375, 3.46875, 3.640625, 3.609375, 3.5625, 3.5, 3.546875, 3.640625, 3.5, 3.359375, 3.65625, 3.375, 3.5, 3.546875, 3.53125, 3.640625, 3.5625, 3.59375, 3.640625, 3.609375, 3.453125, 3.484375, 3.609375, 3.65625, 3.46875, 3.578125, 3.5625, 3.46875, 3.640625, 3.46875, 3.46875, 3.328125, 3.4375, 3.46875, 3.515625, 3.40625, 3.4375, 3.5, 3.703125, 3.53125, 3.46875, 3.53125, 3.515625, 3.640625, 3.59375, 3.53125, 3.453125, 3.390625, 3.328125, 3.453125, 3.265625, 3.640625, 3.609375, 3.484375, 3.46875, 3.4375, 3.515625, 3.390625, 3.5, 3.625, 3.625, 3.53125, 3.421875, 3.453125, 3.515625, 3.578125, 3.5, 3.515625, 3.5, 3.359375, 3.484375, 3.53125, 3.625, 3.546875, 3.46875, 3.53125, 3.609375, 3.59375, 3.53125, 3.484375, 3.546875, 3.53125, 3.421875, 3.46875, 3.46875, 3.609375, 3.390625, 3.375, 3.625, 3.515625, 3.625, 3.515625, 3.5, 3.53125, 3.4375, 3.46875, 3.640625, 3.4375, 3.578125, 3.578125, 3.453125, 3.5, 3.375, 3.640625, 3.453125, 3.546875, 3.515625, 3.625, 3.421875, 3.546875, 3.453125, 3.640625, 3.53125, 3.609375, 3.34375, 3.578125, 3.4375, 3.5625, 3.328125, 3.625, 3.453125, 3.359375, 3.4375, 3.453125, 3.375, 3.40625, 3.53125, 3.40625, 3.53125, 3.609375, 3.421875, 3.421875, 3.484375, 3.5, 3.609375, 3.359375, 3.5, 3.484375, 3.390625, 3.359375, 3.4375, 3.40625, 3.65625, 3.5625, 3.5, 3.46875, 3.71875, 3.53125, 3.515625, 3.5, 3.609375, 3.453125, 3.515625, 3.65625, 3.53125, 3.375, 3.4375, 3.390625, 3.328125, 3.328125, 3.40625, 3.484375, 3.59375, 3.46875, 3.53125, 3.578125, 3.453125, 3.609375, 3.515625, 3.421875, 3.578125, 3.4375, 3.5, 3.640625, 3.46875, 3.421875, 3.4375, 3.515625, 3.390625, 3.625, 3.515625, 3.578125, 3.484375, 3.359375, 3.46875, 3.40625, 3.40625, 3.53125, 3.5625, 3.375, 3.6875, 3.546875, 3.515625, 3.5, 3.625, 3.46875, 3.671875, 3.53125, 3.421875, 3.40625, 3.5, 3.390625, 3.453125, 3.578125, 3.46875, 3.234375, 3.4375, 3.515625, 3.5, 3.4375, 3.578125, 3.59375, 3.5, 3.4375, 3.328125, 3.375, 3.359375, 3.5625, 3.515625, 3.546875, 3.421875, 3.59375, 3.34375, 3.484375, 3.40625, 3.546875, 3.484375, 3.34375, 3.296875, 3.421875, 3.359375, 3.4375, 3.421875, 3.4375, 3.421875, 3.484375, 3.484375, 3.359375, 3.5625, 3.59375, 3.625, 3.328125, 3.34375, 3.390625, 3.3125, 3.375, 3.3125, 3.328125, 3.515625, 3.5, 3.484375, 3.4375, 3.421875, 3.4375, 3.34375, 3.5, 3.53125, 3.53125, 3.375, 3.46875, 3.390625, 3.40625, 3.375, 3.40625, 3.46875, 3.46875, 3.25, 3.484375, 3.421875, 3.578125, 3.40625, 3.421875, 3.296875, 3.5625, 3.328125, 3.671875, 3.375, 3.3125, 3.5, 3.28125, 3.53125, 3.4375, 3.5, 3.375, 3.34375, 3.4375, 3.40625, 3.453125, 3.59375, 3.453125, 3.421875, 3.5, 3.28125, 3.328125, 3.390625, 3.390625, 3.328125, 3.40625, 3.4375, 3.453125, 3.34375, 3.53125, 3.484375, 3.46875, 3.4375, 3.546875, 3.40625, 3.453125, 3.3125, 3.3125, 3.484375, 3.375, 3.46875, 3.5, 3.359375, 3.390625, 3.21875, 3.359375, 3.28125, 3.421875, 3.5, 3.25, 3.40625, 3.4375, 3.5625, 3.421875, 3.328125, 3.25, 3.453125, 3.34375, 3.34375, 3.3125, 3.40625, 3.265625, 3.328125, 3.46875, 3.390625, 3.53125, 3.40625, 3.390625, 3.4375, 3.5625, 3.359375, 3.484375, 3.53125, 3.1875, 3.40625, 3.328125, 3.453125, 3.5625, 3.546875, 3.28125, 3.578125, 3.578125, 3.40625, 3.578125, 3.328125, 3.34375, 3.53125, 3.375, 3.53125, 3.25, 3.328125, 3.578125, 3.375, 3.328125, 3.359375, 3.5, 3.453125, 3.390625, 3.265625, 3.34375, 3.203125, 3.265625, 3.28125, 3.40625, 3.296875, 3.328125, 3.421875, 3.234375, 3.40625, 3.3125, 3.34375, 3.25, 3.265625, 3.265625, 3.421875, 3.53125, 3.3125, 3.390625, 3.390625, 3.234375, 3.546875, 3.3125, 3.4375, 3.375, 3.515625, 3.375, 3.5, 3.546875, 3.484375, 3.40625, 3.484375, 3.40625, 3.5, 3.53125, 3.515625, 3.421875, 3.296875, 3.5625, 3.5625, 3.546875, 3.40625, 3.359375, 3.34375, 3.296875, 3.421875, 3.328125, 3.359375, 3.328125, 3.484375, 3.515625, 3.46875, 3.515625, 3.4375, 3.40625, 3.515625, 3.40625, 3.359375, 3.578125, 3.375, 3.25, 3.515625, 3.484375, 3.34375, 3.703125, 3.421875, 3.296875, 3.46875, 3.4375, 3.359375, 3.359375, 3.4375, 3.359375, 3.453125, 3.40625, 3.34375, 3.4375, 3.40625, 3.4375, 3.546875, 3.265625, 3.46875, 3.34375, 3.328125, 3.34375, 3.390625, 3.234375, 3.4375, 3.4375, 3.4375, 3.53125, 3.421875, 3.25, 3.21875, 3.375, 3.40625, 3.375, 3.34375, 3.59375, 3.53125, 3.46875, 3.4375, 3.421875, 3.40625, 3.3125, 3.390625, 3.3125, 3.546875, 3.234375, 3.28125, 3.296875, 3.3125, 3.4375, 3.5, 3.53125, 3.390625, 3.34375, 3.375, 3.390625, 3.34375, 3.328125, 3.375, 3.25, 3.609375, 3.515625, 3.5, 3.578125, 3.484375, 3.296875, 3.46875, 3.421875, 3.453125, 3.375, 3.4375, 3.4375, 3.5, 3.375, 3.34375, 3.28125, 3.28125, 3.375, 3.484375, 3.515625, 3.46875, 3.40625, 3.328125, 3.390625, 3.5, 3.28125, 3.4375, 3.359375, 3.484375, 3.4375, 3.53125, 3.34375, 3.390625, 3.296875, 3.125, 3.453125, 3.21875, 3.390625, 3.484375, 3.25, 3.34375, 3.46875, 3.390625, 3.421875, 3.390625, 3.375, 3.390625, 3.25, 3.34375, 3.28125, 3.234375, 3.328125, 3.359375, 3.390625, 3.421875, 3.421875, 3.390625, 3.453125, 3.3125, 3.34375, 3.515625, 3.515625, 3.40625, 3.28125, 3.390625, 3.40625, 3.328125, 3.390625, 3.34375, 3.484375, 3.28125, 3.25, 3.4375, 3.234375, 3.421875, 3.28125, 3.203125, 3.328125, 3.359375, 3.140625, 3.328125, 3.265625, 3.421875, 3.3125, 3.125, 3.265625, 3.484375, 3.28125, 3.453125, 3.390625, 3.34375, 3.40625, 3.234375, 3.34375, 3.265625, 3.28125, 3.125, 3.578125, 3.390625, 3.390625, 3.46875, 3.359375, 3.265625, 3.421875, 3.34375, 3.40625, 3.359375, 3.28125, 3.46875, 3.375, 3.234375, 3.4375, 3.40625, 3.1875, 3.296875, 3.328125, 3.40625, 3.25, 3.375, 3.4375, 3.21875, 3.453125, 3.375, 3.375, 3.4375, 3.265625, 3.453125, 3.21875, 3.296875, 3.4375, 3.375, 3.3125, 3.25, 3.296875, 3.3125, 3.40625, 3.234375, 3.390625, 3.28125, 3.328125, 3.21875, 3.40625, 3.140625, 3.125, 3.25, 3.34375, 3.28125, 3.328125, 3.40625, 3.546875, 3.25, 3.359375, 3.34375, 3.5, 3.203125, 3.3125, 3.40625, 3.21875, 3.28125, 3.15625, 3.375, 3.546875, 3.359375, 3.34375, 3.390625, 3.15625, 3.015625, 3.21875, 3.34375, 3.328125, 3.328125, 3.1875, 3.3125, 3.171875, 3.265625, 3.25, 3.359375, 3.328125, 3.328125, 3.203125, 3.28125, 3.421875, 3.4375, 3.328125, 3.0625, 3.421875, 3.34375, 3.15625, 3.25, 3.3125, 3.5, 3.234375, 3.375, 3.234375, 3.296875, 3.359375, 3.53125, 3.40625, 3.421875, 3.328125, 3.515625, 3.125, 3.234375, 3.4375, 3.25, 3.40625, 3.296875, 3.4375, 3.21875, 3.390625, 3.234375, 3.1875, 3.359375, 3.328125, 3.375, 3.296875, 3.1875, 3.234375, 3.3125, 3.34375, 3.15625, 3.203125, 3.203125, 3.34375, 3.375, 3.21875, 3.171875, 3.421875, 3.296875, 3.34375, 3.34375, 3.484375, 3.28125, 3.40625, 3.484375, 3.40625, 3.140625, 3.375, 3.28125, 3.421875, 3.375, 3.4375, 3.421875, 3.25, 3.359375, 3.328125, 3.390625, 3.40625, 3.3125, 3.28125, 3.390625, 3.15625, 3.328125, 3.28125, 3.421875, 3.359375, 3.265625, 3.234375, 3.328125, 3.421875, 3.21875, 3.171875, 3.40625, 3.109375, 3.1875, 3.265625, 3.390625, 3.171875, 3.4375, 3.25, 3.375, 3.359375, 3.515625, 3.46875, 3.359375, 3.265625, 3.265625, 3.421875, 3.234375, 3.28125, 3.34375, 3.40625, 3.34375, 3.0625, 3.203125, 3.34375, 3.3125, 3.375, 3.3125, 3.3125, 3.15625, 3.1875, 3.234375, 3.203125, 3.390625, 3.375, 3.359375, 3.140625, 3.15625, 3.265625, 3.28125, 3.421875, 3.40625, 3.265625, 3.265625, 3.25, 3.0625, 3.5, 3.171875, 3.3125, 3.265625, 3.328125, 3.375, 3.28125, 3.234375, 3.25, 3.34375, 3.296875, 3.109375, 3.234375, 3.28125, 3.390625, 3.1875, 3.125, 3.265625, 3.328125, 3.40625, 3.25, 3.46875, 3.1875, 3.3125, 3.21875, 3.28125, 3.265625, 3.203125, 3.28125, 3.359375, 3.25, 3.328125, 3.21875, 3.328125, 3.203125, 3.3125, 3.28125, 3.296875, 3.296875, 3.328125, 3.203125, 3.15625, 3.3125, 3.328125, 3.390625, 3.140625, 3.3125, 3.25, 3.109375, 3.28125, 3.390625, 3.375, 3.28125, 3.390625, 3.25, 3.265625, 3.40625, 3.21875, 3.078125, 3.28125, 3.328125, 3.390625, 3.328125, 3.21875, 3.5, 3.265625, 3.25, 3.390625, 3.34375, 3.203125, 3.34375, 3.3125, 3.328125, 3.390625, 3.34375, 3.28125, 3.1875, 3.296875, 3.359375, 3.25, 3.28125, 3.390625, 3.359375, 3.3125, 3.390625, 3.328125, 3.40625, 3.375, 3.46875, 3.25, 3.390625, 3.3125, 3.25, 3.1875, 3.265625, 3.4375, 3.203125, 3.21875, 3.296875, 3.125, 3.4375, 3.3125, 3.296875, 3.359375, 3.375, 3.234375, 3.34375, 3.25, 3.1875, 3.234375, 3.296875, 3.40625, 3.21875, 3.421875, 3.3125, 3.296875, 3.1875, 3.078125, 3.171875, 3.28125, 3.234375, 3.28125, 3.390625, 3.375, 3.3125, 3.203125, 3.15625, 3.234375, 3.375, 3.1875, 3.25, 3.109375, 3.3125, 3.140625, 3.40625, 3.09375, 3.171875, 3.328125, 3.28125, 3.328125, 3.21875, 3.28125, 3.28125, 3.3125, 3.34375, 3.3125, 3.265625, 3.15625, 3.28125, 3.203125, 3.328125, 3.234375, 3.3125, 3.421875, 3.234375, 3.234375, 3.3125, 3.21875, 3.265625, 3.1875, 3.390625, 3.34375, 3.34375, 3.34375, 3.21875, 3.078125, 3.203125, 3.21875, 3.359375, 3.171875, 3.109375, 3.125, 3.296875, 3.109375, 3.296875, 3.34375, 3.34375, 3.328125, 3.1875, 3.25, 3.203125, 3.25, 3.265625, 3.234375, 3.453125, 3.296875, 3.296875, 3.1875, 3.1875, 3.328125, 3.28125, 3.234375, 3.1875, 3.203125, 3.265625, 3.3125, 3.40625, 3.328125, 3.359375, 3.359375, 3.265625, 3.296875, 3.296875, 3.265625, 3.21875, 3.28125, 3.09375, 3.203125, 3.234375, 3.09375, 3.296875, 3.28125]","[56320.0, 2560.0, 1248.0, 828.0, 940.0, 664.0, 804.0, 608.0, 588.0, 664.0, 664.0, 568.0, 608.0, 472.0, 552.0, 416.0, 404.0, 404.0, 392.0, 444.0, 416.0, 334.0, 346.0, 324.0, 368.0, 314.0, 334.0, 324.0, 334.0, 253.0, 314.0, 314.0, 245.0, 296.0, 260.0, 286.0, 253.0, 253.0, 245.0, 245.0, 253.0, 216.0, 260.0, 203.0, 209.0, 223.0, 237.0, 203.0, 223.0, 197.0, 216.0, 223.0, 237.0, 209.0, 197.0, 191.0, 191.0, 203.0, 174.0, 168.0, 216.0, 216.0, 191.0, 216.0, 209.0, 168.0, 168.0, 174.0, 203.0, 163.0, 140.0, 149.0, 153.0, 168.0, 153.0, 163.0, 153.0, 144.0, 158.0, 163.0, 127.0, 158.0, 179.0, 149.0, 153.0, 144.0, 123.0, 153.0, 123.0, 127.0, 131.0, 149.0, 108.5, 168.0, 131.0, 144.0, 131.0, 168.0, 140.0, 115.5, 144.0, 123.0, 119.5, 115.5, 115.5, 119.5, 102.0, 108.5, 119.5, 112.0, 105.5, 96.0, 108.5, 99.0, 96.0, 108.5, 105.5, 90.0, 105.5, 102.0, 93.0, 99.0, 96.0, 87.5, 93.0, 105.5, 87.5, 87.5, 102.0, 108.5, 87.5, 96.0, 77.0, 102.0, 82.0, 108.5, 93.0, 90.0, 79.5, 90.0, 87.5, 72.5, 79.5, 72.5, 74.5, 79.5, 90.0, 77.0, 79.5, 84.5, 84.5, 70.0, 82.0, 70.0, 82.0, 70.0, 87.5, 79.5, 79.5, 77.0, 79.5, 77.0, 74.5, 68.0, 70.0, 70.0, 72.5, 64.0, 70.0, 70.0, 62.0, 74.5, 84.5, 68.0, 68.0, 60.0, 74.5, 74.5, 70.0, 77.0, 64.0, 68.0, 74.5, 62.0, 68.0, 79.5, 82.0, 74.5, 79.5, 77.0, 56.25, 66.0, 58.25, 72.5, 70.0, 74.5, 68.0, 70.0, 62.0, 62.0, 70.0, 68.0, 66.0, 56.25, 62.0, 62.0, 64.0, 70.0, 58.25, 60.0, 68.0, 74.5, 60.0, 62.0, 64.0, 66.0, 77.0, 60.0, 68.0, 60.0, 62.0, 60.0, 64.0, 60.0, 64.0, 58.25, 62.0, 62.0, 64.0, 62.0, 68.0, 54.75, 58.25, 56.25, 60.0, 60.0, 56.25, 53.75, 60.0, 46.0, 54.75, 53.75, 46.75, 53.75, 53.0, 66.0, 64.0, 51.25, 54.75, 56.25, 58.25, 60.0, 58.25, 53.75, 56.25, 52.25, 60.0, 54.75, 53.75, 60.0, 60.0, 52.25, 56.25, 53.0, 58.25, 51.25, 54.75, 58.25, 60.0, 43.25, 50.5, 58.25, 45.25, 53.75, 56.25, 60.0, 60.0, 49.75, 56.25, 53.75, 56.25, 56.25, 53.0, 53.75, 58.25, 56.25, 58.25, 52.25, 54.75, 48.25, 49.0, 49.75, 54.75, 51.25, 56.25, 52.25, 51.25, 54.75, 56.25, 42.0, 47.5, 53.0, 51.25, 49.0, 53.75, 56.25, 50.5, 54.75, 47.5, 56.25, 53.75, 49.75, 46.0, 53.75, 51.25, 49.75, 50.5, 46.0, 49.0, 50.5, 45.25, 44.5, 58.25, 56.25, 49.75, 53.0, 49.0, 44.0, 53.0, 56.25, 56.25, 46.75, 51.25, 49.75, 44.0, 52.25, 49.0, 49.0, 47.5, 50.5, 53.75, 38.25, 53.0, 53.75, 44.5, 53.0, 44.5, 44.5, 54.75, 49.0, 46.75, 42.5, 50.5, 60.0, 51.25, 40.0, 62.0, 44.0, 46.75, 53.0, 44.0, 50.5, 50.5, 50.5, 44.0, 46.75, 50.5, 51.25, 44.0, 53.75, 42.5, 44.5, 49.0, 44.0, 53.0, 52.25, 39.25, 46.0, 40.0, 48.25, 49.0, 46.0, 43.25, 53.0, 50.5, 50.5, 40.0, 48.25, 40.5, 46.75, 52.25, 45.25, 49.0, 46.0, 43.25, 48.25, 45.25, 44.0, 49.75, 49.0, 45.25, 45.25, 39.25, 38.75, 56.25, 46.75, 46.75, 38.25, 47.5, 43.25, 42.5, 47.5, 37.5, 44.0, 45.25, 47.5, 42.0, 44.0, 43.25, 44.0, 44.0, 33.25, 44.0, 41.25, 46.75, 43.25, 46.0, 49.75, 43.25, 48.25, 46.0, 42.5, 49.75, 43.25, 40.0, 47.5, 45.25, 46.0, 43.25, 43.25, 40.0, 42.0, 49.0, 42.5, 40.0, 34.75, 36.5, 46.75, 48.25, 53.75, 41.25, 49.0, 44.5, 42.5, 37.5, 46.75, 35.75, 39.25, 48.25, 39.25, 44.0, 46.0, 44.5, 47.5, 43.25, 45.25, 42.0, 43.25, 37.0, 44.0, 42.5, 43.25, 52.25, 49.75, 44.5, 37.0, 38.25, 46.0, 38.25, 40.5, 42.0, 46.75, 49.0, 44.0, 41.25, 40.5, 42.0, 44.0, 44.5, 40.0, 47.5, 40.0, 44.0, 39.25, 41.25, 46.75, 42.0, 41.25, 45.25, 43.25, 44.5, 39.25, 46.75, 46.0, 42.0, 37.5, 41.25, 35.75, 42.0, 39.25, 40.0, 44.5, 42.5, 44.5, 41.25, 41.25, 42.5, 47.5, 44.0, 37.5, 46.75, 44.5, 51.25, 44.0, 42.5, 36.5, 38.25, 38.75, 50.5, 46.75, 50.5, 42.5, 35.25, 34.75, 43.25, 42.5, 37.0, 40.5, 42.0, 44.0, 36.5, 39.25, 36.5, 35.75, 41.25, 38.25, 38.75, 42.0, 34.25, 34.75, 40.0, 38.75, 40.5, 41.25, 39.25, 38.25, 38.25, 38.25, 40.5, 34.25, 43.25, 37.5, 35.75, 39.25, 39.25, 32.0, 39.25, 42.0, 36.5, 36.5, 41.25, 36.5, 35.25, 35.75, 40.5, 43.25, 42.5, 43.25, 37.0, 29.75, 41.25, 42.5, 33.75, 35.75, 35.25, 30.625, 38.75, 37.5, 39.25, 33.75, 42.0, 40.0, 37.5, 35.25, 40.5, 44.0, 45.25, 40.0, 36.5, 32.5, 45.25, 38.25, 37.5, 40.5, 42.0, 42.0, 40.5, 42.5, 42.0, 43.25, 37.0, 36.5, 42.5, 45.25, 35.75, 36.5, 42.5, 35.75, 42.5, 33.75, 43.25, 43.25, 39.25, 41.25, 35.75, 37.0, 41.25, 32.5, 35.25, 38.25, 36.5, 34.25, 40.5, 38.25, 37.0, 37.5, 37.5, 39.25, 41.25, 40.0, 37.5, 40.0, 42.0, 42.0, 42.0, 31.625, 39.25, 34.25, 35.25, 38.75, 41.25, 34.75, 41.25, 35.75, 33.75, 34.75, 38.25, 40.0, 40.5, 44.5, 37.0, 37.0, 36.5, 34.75, 34.25, 36.5, 42.5, 36.5, 33.75, 34.75, 34.25, 46.0, 33.75, 36.5, 34.25, 35.75, 35.25, 38.25, 34.75, 38.75, 38.75, 35.75, 35.75, 34.75, 35.75, 42.0, 38.75, 34.25, 40.5, 35.25, 38.75, 41.25, 38.25, 30.625, 38.75, 40.0, 32.5, 37.0, 36.5, 36.5, 36.5, 37.5, 31.625, 33.75, 38.75, 33.75, 30.625, 37.5, 37.5, 31.125, 42.0, 37.5, 40.5, 37.5, 40.5, 32.5, 37.5, 40.0, 25.75, 33.75, 35.75, 32.5, 34.75, 38.75, 33.75, 35.75, 37.0, 37.0, 37.5, 36.5, 33.25, 33.75, 41.25, 38.25, 35.75, 38.75, 36.5, 35.25, 33.25, 33.75, 40.5, 34.75, 34.25, 35.75, 31.625, 42.0, 34.75, 33.25, 29.25, 33.75, 37.5, 33.75, 31.125, 35.25, 31.125, 37.0, 33.75, 40.0, 29.25, 33.25, 31.625, 31.125, 42.5, 39.25, 37.0, 36.5, 33.75, 34.25, 33.75, 36.5, 29.25, 33.25, 31.125, 33.75, 40.5, 35.75, 34.25, 34.75, 37.0, 35.75, 34.75, 41.25, 32.5, 38.75, 36.5, 30.125, 33.75, 38.75, 33.75, 33.75, 35.25, 36.5, 37.0, 31.625, 32.0, 37.5, 34.25, 33.75, 35.25, 30.625, 31.125, 34.25, 35.25, 42.0, 33.25, 34.75, 33.75, 37.0, 34.25, 37.0, 31.625, 35.75, 35.75, 35.25, 34.25, 31.625, 34.75, 32.5, 33.75, 36.5, 37.0, 38.75, 33.75, 33.75, 44.0, 