last_val_loss,dataset,ul2,causal_denoisers,noncausal_masking,causal_divider,s_divider,r_divider,x_divider,randomize_denoiser_settings,randomize_mask_width,no_special_tokens,alternate_denoisers,progressive_tasks,model_scale,depth,width,num_params,num_non_embedding_params,num_heads,linear_value,seed,run_num,max_epochs,max_steps,max_tokens,max_time_seconds,gpu_capacity_scalar,train_loss_causal,train_pplx_causal,train_acc_causal,train_loss_s,train_pplx_s,train_loss_r,train_pplx_r,train_loss_x,train_pplx_x,train_acc_x_causal,train_acc_r_causal,train_acc_s_causal,train_acc_x_masked,train_acc_r_masked,train_acc_s_masked,val_loss_causal,val_pplx_causal,val_acc_causal,val_loss_s,val_pplx_s,val_loss_r,val_pplx_r,val_loss_x,val_pplx_x,grad_norm,cumulative_time,tokens_seen,epoch,batch_size,seq_length,learning_rate,weight_decay
0.0,fineweb,true,true,false,1000.0,1000.0,1.0,1.0,true,true,true,true,false,1.0001001527155036,8,384,46014344,7376264,8,false,1600,1,1.0,1000000000,1000000000000,1000000000,0.7,"[10.9375, 7.25, 6.75, 6.65625, 6.625, 6.375, 6.34375, 6.09375, 6.0625, 6.21875, 5.875, 5.90625, 5.75, 5.8125, 5.84375, 5.71875, 5.75, 5.6875, 5.625, 5.5, 5.5625, 5.53125, 5.59375, 5.46875, 5.46875, 5.46875, 5.28125, 5.28125, 5.375, 5.34375, 5.34375, 5.46875, 5.34375, 5.3125, 5.125, 5.3125, 5.21875, 5.1875, 5.1875, 5.125, 5.25, 5.1875, 5.09375, 5.34375, 5.15625, 5.15625, 5.125, 5.21875, 5.3125, 5.0625, 4.84375, 5.15625, 5.0, 5.0, 5.25, 5.03125, 4.9375, 5.03125, 4.90625, 4.8125, 5.09375, 5.0, 4.6875, 4.96875, 4.9375, 4.8125, 4.84375, 4.75, 4.90625, 4.8125, 4.84375, 4.84375, 4.8125, 4.84375, 4.78125, 4.84375, 4.71875, 4.71875, 4.84375, 4.78125, 4.65625, 4.625, 4.65625, 4.65625, 4.59375, 4.71875, 4.75, 4.75, 4.59375, 4.5625, 4.53125, 4.59375, 4.40625, 4.6875, 4.625, 4.5625, 4.46875, 4.65625, 4.59375, 4.5, 4.5, 4.40625, 4.5625, 4.4375, 4.34375, 4.5, 4.59375, 4.5, 4.375, 4.3125, 4.375, 4.40625, 4.5625, 4.5, 4.5625, 4.46875, 4.5, 4.21875, 4.40625, 4.5, 4.40625, 4.5, 4.28125, 4.5, 4.25, 4.25, 4.1875, 4.375, 4.375, 4.4375, 4.46875, 4.40625, 4.21875, 4.3125, 4.21875, 4.25, 4.375, 4.21875, 4.34375, 4.21875, 4.34375, 4.25, 4.15625, 4.25, 4.28125, 4.34375, 4.28125, 4.1875, 4.0625, 4.25, 4.375, 4.46875, 4.1875, 4.1875, 4.1875, 4.28125, 4.28125, 4.25, 4.15625, 4.28125, 4.1875, 4.125, 4.15625, 4.375, 4.3125, 4.125, 4.0625, 4.125, 4.125, 4.21875, 4.15625, 4.125, 4.0625, 4.28125, 4.21875, 4.0625, 4.15625, 3.953125, 4.125, 4.1875, 4.09375, 4.09375, 4.1875, 4.15625, 3.984375, 4.15625, 4.1875, 4.0625, 4.09375, 4.09375, 4.0625, 4.125, 4.1875, 4.09375, 4.0, 4.03125, 4.03125, 3.953125, 4.03125, 4.125, 4.09375, 3.984375, 3.953125, 3.984375, 3.953125, 3.96875, 4.0, 4.09375, 4.0625, 4.03125, 4.15625, 3.953125, 4.09375, 4.0, 4.0625, 4.0625, 3.984375, 4.0, 4.0, 4.03125, 4.125, 3.953125, 3.9375, 4.09375, 3.9375, 3.921875, 4.125, 3.890625, 3.953125, 3.859375, 4.0625, 3.953125, 3.859375, 4.03125, 3.96875, 3.9375, 4.03125, 3.96875, 3.84375, 3.984375, 3.90625, 3.765625, 3.9375, 3.890625, 4.0, 3.953125, 4.09375, 3.859375, 3.796875, 4.0, 3.9375, 3.890625, 3.953125, 3.875, 4.0, 3.859375, 4.09375, 3.75, 3.90625, 3.8125, 3.8125, 3.984375, 3.859375, 3.875, 3.84375, 3.859375, 3.84375, 3.8125, 3.84375, 3.875, 3.9375, 3.828125, 3.796875, 3.8125, 3.75, 3.796875, 3.75, 3.921875, 3.828125, 3.8125, 3.859375, 3.90625, 3.8125, 3.921875, 3.703125, 3.8125, 3.796875, 3.703125, 3.71875, 3.828125, 3.828125, 3.578125, 3.765625, 3.90625, 3.859375, 3.71875, 3.90625, 3.890625, 3.703125, 3.90625, 3.84375, 3.75, 3.734375, 3.71875, 3.703125, 3.65625, 3.890625, 3.71875, 3.8125, 3.90625, 3.84375, 3.6875, 3.78125, 3.71875, 3.796875, 3.8125, 3.671875, 3.78125, 3.796875, 3.609375, 3.78125, 3.8125, 3.734375, 3.875, 3.75, 3.71875, 3.75, 3.65625, 3.640625, 3.78125, 3.765625, 3.765625, 3.65625, 3.734375, 3.8125, 3.609375, 3.78125, 3.734375, 3.765625, 3.765625, 3.796875, 3.6875]","[56320.0, 1408.0, 856.0, 780.0, 756.0, 588.0, 568.0, 444.0, 430.0, 502.0, 356.0, 368.0, 314.0, 334.0, 346.0, 304.0, 314.0, 296.0, 278.0, 245.0, 260.0, 253.0, 270.0, 237.0, 237.0, 237.0, 197.0, 197.0, 216.0, 209.0, 209.0, 237.0, 209.0, 203.0, 168.0, 203.0, 185.0, 179.0, 179.0, 168.0, 191.0, 179.0, 163.0, 209.0, 174.0, 174.0, 168.0, 185.0, 203.0, 158.0, 127.0, 174.0, 149.0, 149.0, 191.0, 153.0, 140.0, 153.0, 135.0, 123.0, 163.0, 149.0, 108.5, 144.0, 140.0, 123.0, 127.0, 115.5, 135.0, 123.0, 127.0, 127.0, 123.0, 127.0, 119.5, 127.0, 112.0, 112.0, 127.0, 119.5, 105.5, 102.0, 105.5, 105.5, 99.0, 112.0, 115.5, 115.5, 99.0, 96.0, 93.0, 99.0, 82.0, 108.5, 102.0, 96.0, 87.5, 105.5, 99.0, 90.0, 90.0, 82.0, 96.0, 84.5, 77.0, 90.0, 99.0, 90.0, 79.5, 74.5, 79.5, 82.0, 96.0, 90.0, 96.0, 87.5, 90.0, 68.0, 82.0, 90.0, 82.0, 90.0, 72.5, 90.0, 70.0, 70.0, 66.0, 79.5, 79.5, 84.5, 87.5, 82.0, 68.0, 74.5, 68.0, 70.0, 79.5, 68.0, 77.0, 68.0, 77.0, 70.0, 64.0, 70.0, 72.5, 77.0, 72.5, 66.0, 58.25, 70.0, 79.5, 87.5, 66.0, 66.0, 66.0, 72.5, 72.5, 70.0, 64.0, 72.5, 66.0, 62.0, 64.0, 79.5, 74.5, 62.0, 58.25, 62.0, 62.0, 68.0, 64.0, 62.0, 58.25, 72.5, 68.0, 58.25, 64.0, 52.25, 62.0, 66.0, 60.0, 60.0, 66.0, 64.0, 53.75, 64.0, 66.0, 58.25, 60.0, 60.0, 58.25, 62.0, 66.0, 60.0, 54.75, 56.25, 56.25, 52.25, 56.25, 62.0, 60.0, 53.75, 52.25, 53.75, 52.25, 53.0, 54.75, 60.0, 58.25, 56.25, 64.0, 52.25, 60.0, 54.75, 58.25, 58.25, 53.75, 54.75, 54.75, 56.25, 62.0, 52.25, 51.25, 60.0, 51.25, 50.5, 62.0, 49.0, 52.25, 47.5, 58.25, 52.25, 47.5, 56.25, 53.0, 51.25, 56.25, 53.0, 46.75, 53.75, 49.75, 43.25, 51.25, 49.0, 54.75, 52.25, 60.0, 47.5, 44.5, 54.75, 51.25, 49.0, 52.25, 48.25, 54.75, 47.5, 60.0, 42.5, 49.75, 45.25, 45.25, 53.75, 47.5, 48.25, 46.75, 47.5, 46.75, 45.25, 46.75, 48.25, 51.25, 46.0, 44.5, 45.25, 42.5, 44.5, 42.5, 50.5, 46.0, 45.25, 47.5, 49.75, 45.25, 50.5, 40.5, 45.25, 44.5, 40.5, 41.25, 46.0, 46.0, 35.75, 43.25, 49.75, 47.5, 41.25, 49.75, 49.0, 40.5, 49.75, 46.75, 42.5, 42.0, 41.25, 40.5, 38.75, 49.0, 41.25, 45.25, 49.75, 46.75, 40.0, 44.0, 41.25, 44.5, 45.25, 39.25, 44.0, 44.5, 37.0, 44.0, 45.25, 42.0, 48.25, 42.5, 41.25, 42.5, 38.75, 38.25, 44.0, 43.25, 43.25, 38.75, 42.0, 45.25, 37.0, 44.0, 42.0, 43.25, 43.25, 44.5, 40.0]","[2.504006442904938e-05, 0.06768329441547394, 0.09362480044364929, 0.09072015434503555, 0.09547776728868484, 0.09227263927459717, 0.09795673191547394, 0.11375701427459717, 0.10506810992956161, 0.1110026091337204, 0.11463341861963272, 0.09963441640138626, 0.1168619841337204, 0.1369190663099289, 0.12494992464780807, 0.10667067766189575, 0.11378205567598343, 0.11616086214780807, 0.11328125, 0.12537559866905212, 0.11378205567598343, 0.13361378014087677, 0.14731070399284363, 0.13832131028175354, 0.13506610691547394, 0.11929086595773697, 0.15029045939445496, 0.14197716116905212, 0.1261017620563507, 0.11931590735912323, 0.12277143448591232, 0.1402243673801422, 0.13363882899284363, 0.14696013927459717, 0.1371694803237915, 0.14350460469722748, 0.13491587340831757, 0.13656851649284363, 0.12169471383094788, 0.1357421875, 0.13218650221824646, 0.11964143067598343, 0.1317107379436493, 0.1116536483168602, 0.1497395783662796, 0.15066607296466827, 0.15362079441547394, 0.11363181471824646, 0.11182893067598343, 0.14525741338729858, 0.14520733058452606, 0.15549880266189575, 0.16889522969722748, 0.11110276728868484, 0.14070011675357819, 0.15367087721824646, 0.15685096383094788, 0.14946414530277252, 0.12815505266189575, 0.15424679219722748, 0.12249599397182465, 0.14906349778175354, 0.146484375, 0.14265324175357819, 0.15119190514087677, 0.15269431471824646, 0.1469351053237915, 0.15519832074642181, 0.16063201427459717, 0.15630008280277252, 0.16486378014087677, 0.1272786408662796, 0.15857872366905212, 0.1669921875, 0.15870392322540283, 0.16724258661270142, 0.13937300443649292, 0.14816206693649292, 0.1303335279226303, 0.15349559485912323, 0.16220954060554504, 0.14633414149284363, 0.1528695970773697, 0.11841446161270142, 0.19245792925357819, 0.15857872366905212, 0.15309494733810425, 0.14470653235912323, 0.16240985691547394, 0.18394431471824646, 0.15459735691547394, 0.16376201808452606, 0.18356871604919434, 0.15276943147182465, 0.1636117845773697, 0.15099158883094788, 0.16376201808452606, 0.16120792925357819, 0.16371193528175354, 0.16218449175357819, 0.13741987943649292, 0.19984474778175354, 0.16155849397182465, 0.1575520783662796, 0.17410357296466827, 0.13889724016189575, 0.16468849778175354, 0.17560596764087677, 0.16611579060554504, 0.17039763927459717, 0.17668269574642181, 0.15159255266189575, 0.18732471764087677, 0.15106670558452606, 0.17202524840831757, 0.16383713483810425, 0.17588141560554504, 0.19353465735912323, 0.18589743971824646, 0.19964443147182465, 0.15887920558452606, 0.16396234929561615, 0.18376903235912323, 0.14913862943649292, 0.1637369841337204, 0.17497996985912323, 0.16213442385196686, 0.16957131028175354, 0.17355269193649292, 0.1625601053237915, 0.173828125, 0.1501903086900711, 0.1856720745563507, 0.14683493971824646, 0.19070513546466827, 0.17042267322540283, 0.1694711595773697, 0.16794371604919434, 0.16989684104919434, 0.1761067658662796, 0.20445212721824646, 0.15504807233810425, 0.18837641179561615, 0.16303585469722748, 0.1705729216337204, 0.17628204822540283, 0.17262619733810425, 0.17788462340831757, 0.19353465735912323, 0.16078224778175354, 0.17941206693649292, 0.16163361072540283, 0.1525440663099289, 0.17482973635196686, 0.1706981211900711, 0.16729266941547394, 0.17307692766189575, 0.18447016179561615, 0.18239182233810425, 0.1388721913099289, 0.1675180345773697, 0.18409454822540283, 0.15985576808452606, 0.19145633280277252, 0.17322716116905212, 0.1868489533662796, 0.16023136675357819, 0.1915314495563507, 0.18161559104919434, 0.17215044796466827, 0.19769130647182465, 0.16794371604919434, 0.19183193147182465, 0.1789112538099289, 0.21990184485912323, 0.19631411135196686, 0.17745894193649292, 0.19068008661270142, 0.20532852411270142, 0.16010616719722748, 0.1791616678237915, 0.1968149095773697, 0.19025440514087677, 0.17225059866905212, 0.1755809336900711, 0.1988181173801422, 0.20645533502101898, 0.21314102411270142, 0.1785857379436493, 0.1955128163099289, 0.18234175443649292, 0.18752504885196686, 0.20089644193649292, 0.1977914720773697, 0.21168869733810425, 0.19090545177459717, 0.16689203679561615, 0.19090545177459717, 0.18975360691547394, 0.17007212340831757, 0.17270132899284363, 0.2146434336900711, 0.2060546875, 0.1958884298801422, 0.19060496985912323, 0.17983774840831757, 0.18817608058452606, 0.19047977030277252, 0.19769130647182465, 0.18071414530277252, 0.17523036897182465, 0.2043018788099289, 0.18845152854919434, 0.2221304178237915, 0.1866486370563507, 0.1622345745563507, 0.1846955120563507, 0.18644832074642181, 0.173828125, 0.18409454822540283, 0.17608173191547394, 0.19611378014087677, 0.19831730425357819, 0.18401943147182465, 0.18492087721824646, 0.20738181471824646, 0.17693309485912323, 0.20823317766189575, 0.19921875, 0.2247345745563507, 0.20277443528175354, 0.21824920177459717, 0.22633714973926544, 0.18364383280277252, 0.2026742845773697, 0.18765024840831757, 0.1813151091337204, 0.19278346002101898, 0.21286559104919434, 0.20770733058452606, 0.18604767322540283, 0.2039012461900711, 0.17172476649284363, 0.20645533502101898, 0.19268329441547394, 0.19711539149284363, 0.20302484929561615, 0.2088591754436493, 0.19012920558452606, 0.1880759298801422, 0.18121494352817535, 0.21181391179561615, 0.17009715735912323, 0.2041015625, 0.18642328679561615, 0.20034556090831757, 0.18031349778175354, 0.2141927182674408, 0.2165965586900711, 0.21121294796466827, 0.20525340735912323, 0.2107371836900711, 0.20297476649284363, 0.19593849778175354, 0.20192307233810425, 0.19203224778175354, 0.2044270932674408, 0.21727263927459717, 0.20753204822540283, 0.22305689752101898, 0.19140625, 0.24684496223926544, 0.19240786135196686, 0.19561298191547394, 0.18752504885196686, 0.19370993971824646, 0.19786658883094788, 0.1751302033662796, 0.21384215354919434, 0.20678085088729858, 0.21657150983810425, 0.20355068147182465, 0.1669921875, 0.17247596383094788, 0.21649639308452606, 0.22325721383094788, 0.19764122366905212, 0.21592047810554504, 0.18780048191547394, 0.2175731211900711, 0.19068008661270142, 0.23655349016189575, 0.19040465354919434, 0.2126903086900711, 0.208984375, 0.22182993590831757, 0.19701522588729858, 0.20653045177459717, 0.22503505647182465, 0.1985677182674408, 0.20600460469722748, 0.20047076046466827, 0.19431090354919434, 0.20602965354919434, 0.2062550038099289, 0.22060297429561615, 0.18351863324642181, 0.2228565663099289, 0.22663761675357819, 0.18251703679561615, 0.23627804219722748, 0.22919170558452606, 0.19313400983810425, 0.23467548191547394, 0.22077824175357819, 0.21689704060554504, 0.21281550824642181, 0.16811899840831757, 0.21166366338729858, 0.18126502633094788, 0.20660556852817535, 0.16421274840831757, 0.23637820780277252, 0.1890524923801422, 0.16253505647182465, 0.2114633470773697, 0.21396735310554504, 0.21216446161270142, 0.2302684336900711, 0.2014974057674408, 0.1902293711900711, 0.1775340586900711, 0.20124699175357819, 0.21702224016189575, 0.22333233058452606, 0.21915064752101898, 0.17790965735912323, 0.2312449961900711, 0.2013721913099289, 0.19874298572540283, 0.1851462423801422, 0.1880258470773697]","[10.9375, 8.75, 8.8125, 8.9375, 9.125, 8.9375, 9.0625, 8.875, 8.9375, 8.9375, 8.8125, 9.0625, 8.8125, 8.9375, 8.8125, 8.9375, 9.0, 9.0625, 8.875, 8.875, 9.0, 9.0, 9.0625, 8.9375, 9.0625, 9.0625, 9.0, 8.875, 9.125, 8.875, 9.125, 9.0625, 9.0625, 9.0625, 9.0, 9.1875, 8.875, 9.0, 9.1875, 8.9375, 9.0625, 9.0625, 9.0, 9.125, 9.125, 9.0, 9.0625, 9.125, 9.125, 9.1875, 8.875, 9.0, 9.0, 9.125, 9.0, 9.0625, 9.0625, 9.0, 9.0625, 9.0, 9.25, 9.0625, 9.0, 9.125, 8.875, 9.0625, 9.0625, 9.0625, 9.0, 9.125, 9.0, 9.125, 9.0625, 9.0625, 9.0, 8.9375, 9.25, 9.125, 9.0625, 9.0625, 8.9375, 9.1875, 9.125, 9.0625, 9.0, 9.0625, 9.0, 9.0625, 9.0, 9.125, 9.0625, 9.125, 9.0, 9.0625, 9.0625, 9.1875, 8.9375, 9.125, 9.125, 9.1875, 9.0, 8.9375, 9.125, 9.125, 9.125, 9.125, 9.0, 9.0625, 9.0625, 9.1875, 9.0625, 9.125, 9.125, 9.0625, 9.0625, 9.125, 9.0, 8.9375, 9.1875, 9.0, 9.0625, 9.125, 9.0625, 9.0625, 9.125, 9.0625, 8.9375, 9.0625, 9.0, 9.0, 8.9375, 9.0625, 9.125, 8.9375, 9.0625, 9.125, 9.0, 9.125, 9.125, 9.125, 8.9375, 9.125, 9.25, 9.0625, 9.0625, 9.0, 9.1875, 9.0, 9.0625, 9.0625, 9.25, 9.125, 9.125, 9.0625, 9.125, 9.125, 9.125, 9.0, 9.0625, 9.1875, 9.125, 9.125, 9.0625, 9.0625, 9.0625, 9.0625, 9.125, 9.0625, 9.1875, 9.0, 9.125, 9.0, 9.0625, 9.1875, 9.0, 9.125, 9.125, 9.0, 9.125, 9.1875, 9.0, 9.0625, 9.1875, 9.1875, 9.25, 9.0625, 9.0, 9.0625, 9.0625, 9.0, 9.3125, 9.0625, 9.0625, 9.1875, 9.125, 9.125, 9.1875, 9.1875, 9.0625, 9.0625, 9.1875, 9.3125, 9.125, 9.125, 9.1875, 9.3125, 9.1875, 9.1875, 9.125, 9.3125, 9.125, 9.25, 9.125, 9.3125, 9.125, 9.125, 9.125, 9.1875, 9.1875, 9.25, 9.1875, 9.25, 9.3125, 9.1875, 9.0625, 9.25, 9.1875, 9.25, 9.3125, 9.25, 9.3125, 9.1875, 9.375, 9.3125, 9.1875, 9.25, 9.5, 9.3125, 9.375, 9.375, 9.25, 9.3125, 9.3125, 9.375, 9.25, 9.3125, 9.125, 9.375, 9.4375, 9.3125, 9.25, 9.25, 9.5, 9.4375, 9.3125, 9.5, 9.1875, 9.25, 9.3125, 9.3125, 9.375, 9.1875, 9.4375, 9.375, 9.3125, 9.375, 9.1875, 9.25, 9.375, 9.375, 9.4375, 9.3125, 9.3125, 9.5, 9.4375, 9.5, 9.4375, 9.4375, 9.25, 9.375, 9.3125, 9.3125, 9.625, 9.4375, 9.375, 9.4375, 9.5, 9.375, 9.5, 9.375, 9.375, 9.3125, 9.3125, 9.375, 9.375, 9.375, 9.25, 9.4375, 9.5, 9.5, 9.375, 9.5, 9.5625, 9.5, 9.4375, 9.4375, 9.4375, 9.375, 9.4375, 9.25, 9.3125, 9.4375, 9.5625, 9.375, 9.5, 9.5, 9.5, 9.5, 9.4375, 9.75, 9.5625, 9.6875, 9.5625, 9.4375, 9.625, 9.5625, 9.375, 9.5, 9.375, 9.4375, 9.5, 9.8125, 9.5, 9.4375, 9.4375, 9.5, 9.5625, 9.1875, 9.5, 9.5625, 9.625, 9.625]","[56320.0, 6336.0, 6720.0, 7616.0, 9216.0, 7616.0, 8640.0, 7168.0, 7616.0, 7616.0, 6720.0, 8640.0, 6720.0, 7616.0, 6720.0, 7616.0, 8128.0, 8640.0, 7168.0, 7168.0, 8128.0, 8128.0, 8640.0, 7616.0, 8640.0, 8640.0, 8128.0, 7168.0, 9216.0, 7168.0, 9216.0, 8640.0, 8640.0, 8640.0, 8128.0, 9792.0, 7168.0, 8128.0, 9792.0, 7616.0, 8640.0, 8640.0, 8128.0, 9216.0, 9216.0, 8128.0, 8640.0, 9216.0, 9216.0, 9792.0, 7168.0, 8128.0, 8128.0, 9216.0, 8128.0, 8640.0, 8640.0, 8128.0, 8640.0, 8128.0, 10432.0, 8640.0, 8128.0, 9216.0, 7168.0, 8640.0, 8640.0, 8640.0, 8128.0, 9216.0, 8128.0, 9216.0, 8640.0, 8640.0, 8128.0, 7616.0, 10432.0, 9216.0, 8640.0, 8640.0, 7616.0, 9792.0, 9216.0, 8640.0, 8128.0, 8640.0, 8128.0, 8640.0, 8128.0, 9216.0, 8640.0, 9216.0, 8128.0, 8640.0, 8640.0, 9792.0, 7616.0, 9216.0, 9216.0, 9792.0, 8128.0, 7616.0, 9216.0, 9216.0, 9216.0, 9216.0, 8128.0, 8640.0, 8640.0, 9792.0, 8640.0, 9216.0, 9216.0, 8640.0, 8640.0, 9216.0, 8128.0, 7616.0, 9792.0, 8128.0, 8640.0, 9216.0, 8640.0, 8640.0, 9216.0, 8640.0, 7616.0, 8640.0, 8128.0, 8128.0, 7616.0, 8640.0, 9216.0, 7616.0, 8640.0, 9216.0, 8128.0, 9216.0, 9216.0, 9216.0, 7616.0, 9216.0, 10432.0, 8640.0, 8640.0, 8128.0, 9792.0, 8128.0, 8640.0, 8640.0, 10432.0, 9216.0, 9216.0, 8640.0, 9216.0, 9216.0, 9216.0, 8128.0, 8640.0, 9792.0, 9216.0, 9216.0, 8640.0, 8640.0, 8640.0, 8640.0, 9216.0, 8640.0, 9792.0, 8128.0, 9216.0, 8128.0, 8640.0, 9792.0, 8128.0, 9216.0, 9216.0, 8128.0, 9216.0, 9792.0, 8128.0, 8640.0, 9792.0, 9792.0, 10432.0, 8640.0, 8128.0, 8640.0, 8640.0, 8128.0, 11072.0, 8640.0, 8640.0, 9792.0, 9216.0, 9216.0, 9792.0, 9792.0, 8640.0, 8640.0, 9792.0, 11072.0, 9216.0, 9216.0, 9792.0, 11072.0, 9792.0, 9792.0, 9216.0, 11072.0, 9216.0, 10432.0, 9216.0, 11072.0, 9216.0, 9216.0, 9216.0, 9792.0, 9792.0, 10432.0, 9792.0, 10432.0, 11072.0, 9792.0, 8640.0, 10432.0, 9792.0, 10432.0, 11072.0, 10432.0, 11072.0, 9792.0, 11840.0, 11072.0, 9792.0, 10432.0, 13376.0, 11072.0, 11840.0, 11840.0, 10432.0, 11072.0, 11072.0, 11840.0, 10432.0, 11072.0, 9216.0, 11840.0, 12544.0, 11072.0, 10432.0, 10432.0, 13376.0, 12544.0, 11072.0, 13376.0, 9792.0, 10432.0, 11072.0, 11072.0, 11840.0, 9792.0, 12544.0, 11840.0, 11072.0, 11840.0, 9792.0, 10432.0, 11840.0, 11840.0, 12544.0, 11072.0, 11072.0, 13376.0, 12544.0, 13376.0, 12544.0, 12544.0, 10432.0, 11840.0, 11072.0, 11072.0, 15168.0, 12544.0, 11840.0, 12544.0, 13376.0, 11840.0, 13376.0, 11840.0, 11840.0, 11072.0, 11072.0, 11840.0, 11840.0, 11840.0, 10432.0, 12544.0, 13376.0, 13376.0, 11840.0, 13376.0, 14272.0, 13376.0, 12544.0, 12544.0, 12544.0, 11840.0, 12544.0, 10432.0, 11072.0, 12544.0, 14272.0, 11840.0, 13376.0, 13376.0, 13376.0, 13376.0, 12544.0, 17152.0, 14272.0, 16128.0, 14272.0, 12544.0, 15168.0, 14272.0, 11840.0, 13376.0, 11840.0, 12544.0, 13376.0, 18304.0, 13376.0, 12544.0, 12544.0, 13376.0, 14272.0, 9792.0, 13376.0, 14272.0, 15168.0, 15168.0]","[10.9375, 8.75, 8.8125, 8.9375, 9.125, 9.0, 9.0, 8.875, 8.875, 8.875, 8.75, 9.0, 8.875, 9.0, 8.875, 8.875, 9.0, 9.0, 8.875, 8.875, 8.9375, 8.9375, 9.125, 8.9375, 9.0, 9.0, 9.0, 8.875, 9.0, 8.8125, 9.0, 9.0, 9.0625, 9.0, 9.0, 9.125, 8.8125, 8.9375, 9.0625, 8.9375, 9.0, 9.0, 8.9375, 9.0, 9.0625, 8.9375, 9.0625, 9.0, 8.9375, 9.0625, 8.875, 8.9375, 8.9375, 9.0, 9.0, 9.0, 9.0, 8.875, 8.9375, 9.0, 9.0625, 8.9375, 9.0, 9.0, 8.8125, 9.0, 9.0, 8.9375, 9.0, 9.0625, 8.9375, 9.0, 9.0, 9.0, 8.9375, 8.9375, 9.0625, 9.0, 9.0, 8.9375, 8.9375, 9.0625, 9.0625, 8.9375, 8.9375, 9.0, 8.9375, 9.0, 9.0, 9.0, 9.0, 9.0, 9.0, 8.9375, 9.0, 9.0, 8.875, 9.0625, 9.0, 9.0625, 8.875, 8.9375, 9.0, 8.9375, 9.0, 9.0, 8.9375, 9.0, 8.9375, 9.0625, 9.0, 9.0, 9.0625, 8.9375, 8.9375, 9.0, 9.0, 8.9375, 9.125, 8.9375, 8.9375, 9.0, 9.0, 8.875, 8.9375, 9.0, 8.875, 8.9375, 8.8125, 8.8125, 8.875, 8.9375, 9.0, 8.8125, 9.0, 9.0, 8.875, 9.0, 9.0, 9.0, 8.875, 8.9375, 9.125, 8.9375, 8.875, 8.9375, 9.0, 8.875, 8.9375, 8.9375, 9.125, 9.0, 8.9375, 8.875, 8.9375, 9.0, 9.0, 8.9375, 8.9375, 8.9375, 8.9375, 8.9375, 8.9375, 9.0, 8.9375, 8.9375, 8.875, 8.9375, 9.0625, 8.875, 9.0, 8.9375, 9.0, 9.0625, 9.0, 9.0, 8.9375, 8.9375, 9.0625, 9.0, 8.9375, 9.0, 9.0, 8.9375, 9.0, 9.0625, 9.0, 8.9375, 8.9375, 8.875, 9.0, 8.9375, 9.0, 9.0, 9.0, 9.0, 8.9375, 9.125, 9.0, 8.875, 9.0625, 9.125, 9.0, 8.9375, 9.0625, 9.0625, 9.0, 9.0625, 9.0, 9.125, 9.0, 9.0625, 9.0, 9.1875, 9.0, 9.0, 8.9375, 8.9375, 9.0, 9.0, 8.9375, 9.125, 9.125, 9.0625, 9.0, 9.125, 9.0, 9.0625, 9.1875, 9.1875, 9.125, 9.125, 9.25, 9.1875, 9.0625, 9.0, 9.25, 9.1875, 9.25, 9.25, 9.0625, 9.1875, 9.1875, 9.1875, 9.0625, 9.125, 9.0625, 9.1875, 9.125, 9.125, 9.0625, 9.1875, 9.1875, 9.1875, 9.1875, 9.3125, 9.0625, 9.25, 9.1875, 9.1875, 9.25, 9.125, 9.25, 9.1875, 9.1875, 9.1875, 9.0, 9.125, 9.1875, 9.25, 9.125, 9.1875, 9.0625, 9.375, 9.1875, 9.3125, 9.25, 9.1875, 9.125, 9.3125, 9.25, 9.1875, 9.3125, 9.1875, 9.25, 9.375, 9.25, 9.25, 9.25, 9.1875, 9.25, 9.1875, 9.125, 9.25, 9.25, 9.25, 9.125, 9.25, 9.25, 9.3125, 9.1875, 9.25, 9.4375, 9.3125, 9.375, 9.3125, 9.1875, 9.25, 9.375, 9.125, 9.1875, 9.3125, 9.375, 9.3125, 9.375, 9.375, 9.3125, 9.375, 9.25, 9.4375, 9.3125, 9.375, 9.4375, 9.3125, 9.3125, 9.375, 9.1875, 9.375, 9.25, 9.1875, 9.375, 9.5, 9.3125, 9.375, 9.25, 9.375, 9.25, 9.125, 9.25, 9.3125, 9.375, 9.375]","[56320.0, 6336.0, 6720.0, 7616.0, 9216.0, 8128.0, 8128.0, 7168.0, 7168.0, 7168.0, 6336.0, 8128.0, 7168.0, 8128.0, 7168.0, 7168.0, 8128.0, 8128.0, 7168.0, 7168.0, 7616.0, 7616.0, 9216.0, 7616.0, 8128.0, 8128.0, 8128.0, 7168.0, 8128.0, 6720.0, 8128.0, 8128.0, 8640.0, 8128.0, 8128.0, 9216.0, 6720.0, 7616.0, 8640.0, 7616.0, 8128.0, 8128.0, 7616.0, 8128.0, 8640.0, 7616.0, 8640.0, 8128.0, 7616.0, 8640.0, 7168.0, 7616.0, 7616.0, 8128.0, 8128.0, 8128.0, 8128.0, 7168.0, 7616.0, 8128.0, 8640.0, 7616.0, 8128.0, 8128.0, 6720.0, 8128.0, 8128.0, 7616.0, 8128.0, 8640.0, 7616.0, 8128.0, 8128.0, 8128.0, 7616.0, 7616.0, 8640.0, 8128.0, 8128.0, 7616.0, 7616.0, 8640.0, 8640.0, 7616.0, 7616.0, 8128.0, 7616.0, 8128.0, 8128.0, 8128.0, 8128.0, 8128.0, 8128.0, 7616.0, 8128.0, 8128.0, 7168.0, 8640.0, 8128.0, 8640.0, 7168.0, 7616.0, 8128.0, 7616.0, 8128.0, 8128.0, 7616.0, 8128.0, 7616.0, 8640.0, 8128.0, 8128.0, 8640.0, 7616.0, 7616.0, 8128.0, 8128.0, 7616.0, 9216.0, 7616.0, 7616.0, 8128.0, 8128.0, 7168.0, 7616.0, 8128.0, 7168.0, 7616.0, 6720.0, 6720.0, 7168.0, 7616.0, 8128.0, 6720.0, 8128.0, 8128.0, 7168.0, 8128.0, 8128.0, 8128.0, 7168.0, 7616.0, 9216.0, 7616.0, 7168.0, 7616.0, 8128.0, 7168.0, 7616.0, 7616.0, 9216.0, 8128.0, 7616.0, 7168.0, 7616.0, 8128.0, 8128.0, 7616.0, 7616.0, 7616.0, 7616.0, 7616.0, 7616.0, 8128.0, 7616.0, 7616.0, 7168.0, 7616.0, 8640.0, 7168.0, 8128.0, 7616.0, 8128.0, 8640.0, 8128.0, 8128.0, 7616.0, 7616.0, 8640.0, 8128.0, 7616.0, 8128.0, 8128.0, 7616.0, 8128.0, 8640.0, 8128.0, 7616.0, 7616.0, 7168.0, 8128.0, 7616.0, 8128.0, 8128.0, 8128.0, 8128.0, 7616.0, 9216.0, 8128.0, 7168.0, 8640.0, 9216.0, 8128.0, 7616.0, 8640.0, 8640.0, 8128.0, 8640.0, 8128.0, 9216.0, 8128.0, 8640.0, 8128.0, 9792.0, 8128.0, 8128.0, 7616.0, 7616.0, 8128.0, 8128.0, 7616.0, 9216.0, 9216.0, 8640.0, 8128.0, 9216.0, 8128.0, 8640.0, 9792.0, 9792.0, 9216.0, 9216.0, 10432.0, 9792.0, 8640.0, 8128.0, 10432.0, 9792.0, 10432.0, 10432.0, 8640.0, 9792.0, 9792.0, 9792.0, 8640.0, 9216.0, 8640.0, 9792.0, 9216.0, 9216.0, 8640.0, 9792.0, 9792.0, 9792.0, 9792.0, 11072.0, 8640.0, 10432.0, 9792.0, 9792.0, 10432.0, 9216.0, 10432.0, 9792.0, 9792.0, 9792.0, 8128.0, 9216.0, 9792.0, 10432.0, 9216.0, 9792.0, 8640.0, 11840.0, 9792.0, 11072.0, 10432.0, 9792.0, 9216.0, 11072.0, 10432.0, 9792.0, 11072.0, 9792.0, 10432.0, 11840.0, 10432.0, 10432.0, 10432.0, 9792.0, 10432.0, 9792.0, 9216.0, 10432.0, 10432.0, 10432.0, 9216.0, 10432.0, 10432.0, 11072.0, 9792.0, 10432.0, 12544.0, 11072.0, 11840.0, 11072.0, 9792.0, 10432.0, 11840.0, 9216.0, 9792.0, 11072.0, 11840.0, 11072.0, 11840.0, 11840.0, 11072.0, 11840.0, 10432.0, 12544.0, 11072.0, 11840.0, 12544.0, 11072.0, 11072.0, 11840.0, 9792.0, 11840.0, 10432.0, 9792.0, 11840.0, 13376.0, 11072.0, 11840.0, 10432.0, 11840.0, 10432.0, 9216.0, 10432.0, 11072.0, 11840.0, 11840.0]","[10.9375, 8.5, 8.5, 8.5625, 8.6875, 8.625, 8.625, 8.5, 8.5, 8.5625, 8.4375, 8.5625, 8.5, 8.5625, 8.5, 8.4375, 8.5625, 8.5625, 8.4375, 8.4375, 8.4375, 8.5, 8.625, 8.5, 8.5625, 8.5625, 8.5, 8.375, 8.5625, 8.4375, 8.5625, 8.5625, 8.5625, 8.5, 8.5, 8.625, 8.375, 8.4375, 8.5625, 8.4375, 8.5, 8.5, 8.4375, 8.5625, 8.5, 8.4375, 8.5, 8.5, 8.5, 8.5625, 8.3125, 8.4375, 8.4375, 8.5, 8.5, 8.4375, 8.4375, 8.375, 8.4375, 8.375, 8.5625, 8.4375, 8.375, 8.5, 8.375, 8.4375, 8.4375, 8.375, 8.4375, 8.4375, 8.4375, 8.4375, 8.4375, 8.4375, 8.375, 8.375, 8.4375, 8.4375, 8.4375, 8.4375, 8.3125, 8.4375, 8.4375, 8.3125, 8.375, 8.4375, 8.375, 8.4375, 8.375, 8.4375, 8.375, 8.375, 8.375, 8.375, 8.4375, 8.4375, 8.3125, 8.4375, 8.375, 8.4375, 8.3125, 8.3125, 8.4375, 8.3125, 8.375, 8.4375, 8.3125, 8.375, 8.3125, 8.4375, 8.375, 8.375, 8.4375, 8.375, 8.375, 8.375, 8.375, 8.3125, 8.5, 8.375, 8.375, 8.4375, 8.375, 8.375, 8.3125, 8.375, 8.3125, 8.3125, 8.25, 8.3125, 8.25, 8.3125, 8.375, 8.1875, 8.375, 8.375, 8.25, 8.375, 8.3125, 8.375, 8.25, 8.375, 8.375, 8.3125, 8.3125, 8.3125, 8.375, 8.3125, 8.25, 8.25, 8.5, 8.375, 8.3125, 8.3125, 8.3125, 8.375, 8.375, 8.375, 8.25, 8.3125, 8.3125, 8.3125, 8.3125, 8.375, 8.3125, 8.3125, 8.25, 8.25, 8.4375, 8.25, 8.3125, 8.3125, 8.3125, 8.4375, 8.375, 8.375, 8.3125, 8.25, 8.375, 8.375, 8.3125, 8.3125, 8.375, 8.375, 8.25, 8.375, 8.375, 8.3125, 8.3125, 8.25, 8.375, 8.3125, 8.3125, 8.375, 8.3125, 8.375, 8.25, 8.375, 8.375, 8.25, 8.375, 8.4375, 8.375, 8.25, 8.375, 8.375, 8.3125, 8.375, 8.3125, 8.4375, 8.375, 8.3125, 8.3125, 8.4375, 8.3125, 8.3125, 8.3125, 8.25, 8.3125, 8.375, 8.3125, 8.4375, 8.375, 8.375, 8.3125, 8.375, 8.3125, 8.375, 8.4375, 8.375, 8.4375, 8.375, 8.4375, 8.4375, 8.375, 8.3125, 8.5, 8.4375, 8.5, 8.4375, 8.3125, 8.4375, 8.4375, 8.5, 8.375, 8.375, 8.375, 8.4375, 8.3125, 8.4375, 8.375, 8.4375, 8.375, 8.4375, 8.4375, 8.5, 8.375, 8.4375, 8.4375, 8.4375, 8.4375, 8.4375, 8.4375, 8.4375, 8.4375, 8.4375, 8.3125, 8.375, 8.4375, 8.5625, 8.375, 8.4375, 8.375, 8.5625, 8.4375, 8.5, 8.4375, 8.4375, 8.4375, 8.5, 8.5, 8.4375, 8.5625, 8.5, 8.4375, 8.5625, 8.4375, 8.4375, 8.5, 8.4375, 8.4375, 8.375, 8.375, 8.5, 8.5, 8.375, 8.375, 8.5, 8.5, 8.5625, 8.4375, 8.5, 8.5625, 8.5, 8.4375, 8.4375, 8.4375, 8.4375, 8.5, 8.4375, 8.375, 8.5, 8.5625, 8.4375, 8.5, 8.5625, 8.4375, 8.5625, 8.4375, 8.5, 8.5, 8.5, 8.5625, 8.5, 8.5, 8.5625, 8.375, 8.5, 8.4375, 8.5, 8.5, 8.5625, 8.5, 8.5, 8.5, 8.5, 8.5, 8.375, 8.5, 8.4375, 8.5, 8.5625]","[56320.0, 4928.0, 4928.0, 5248.0, 5952.0, 5568.0, 5568.0, 4928.0, 4928.0, 5248.0, 4608.0, 5248.0, 4928.0, 5248.0, 4928.0, 4608.0, 5248.0, 5248.0, 4608.0, 4608.0, 4608.0, 4928.0, 5568.0, 4928.0, 5248.0, 5248.0, 4928.0, 4352.0, 5248.0, 4608.0, 5248.0, 5248.0, 5248.0, 4928.0, 4928.0, 5568.0, 4352.0, 4608.0, 5248.0, 4608.0, 4928.0, 4928.0, 4608.0, 5248.0, 4928.0, 4608.0, 4928.0, 4928.0, 4928.0, 5248.0, 4080.0, 4608.0, 4608.0, 4928.0, 4928.0, 4608.0, 4608.0, 4352.0, 4608.0, 4352.0, 5248.0, 4608.0, 4352.0, 4928.0, 4352.0, 4608.0, 4608.0, 4352.0, 4608.0, 4608.0, 4608.0, 4608.0, 4608.0, 4608.0, 4352.0, 4352.0, 4608.0, 4608.0, 4608.0, 4608.0, 4080.0, 4608.0, 4608.0, 4080.0, 4352.0, 4608.0, 4352.0, 4608.0, 4352.0, 4608.0, 4352.0, 4352.0, 4352.0, 4352.0, 4608.0, 4608.0, 4080.0, 4608.0, 4352.0, 4608.0, 4080.0, 4080.0, 4608.0, 4080.0, 4352.0, 4608.0, 4080.0, 4352.0, 4080.0, 4608.0, 4352.0, 4352.0, 4608.0, 4352.0, 4352.0, 4352.0, 4352.0, 4080.0, 4928.0, 4352.0, 4352.0, 4608.0, 4352.0, 4352.0, 4080.0, 4352.0, 4080.0, 4080.0, 3840.0, 4080.0, 3840.0, 4080.0, 4352.0, 3600.0, 4352.0, 4352.0, 3840.0, 4352.0, 4080.0, 4352.0, 3840.0, 4352.0, 4352.0, 4080.0, 4080.0, 4080.0, 4352.0, 4080.0, 3840.0, 3840.0, 4928.0, 4352.0, 4080.0, 4080.0, 4080.0, 4352.0, 4352.0, 4352.0, 3840.0, 4080.0, 4080.0, 4080.0, 4080.0, 4352.0, 4080.0, 4080.0, 3840.0, 3840.0, 4608.0, 3840.0, 4080.0, 4080.0, 4080.0, 4608.0, 4352.0, 4352.0, 4080.0, 3840.0, 4352.0, 4352.0, 4080.0, 4080.0, 4352.0, 4352.0, 3840.0, 4352.0, 4352.0, 4080.0, 4080.0, 3840.0, 4352.0, 4080.0, 4080.0, 4352.0, 4080.0, 4352.0, 3840.0, 4352.0, 4352.0, 3840.0, 4352.0, 4608.0, 4352.0, 3840.0, 4352.0, 4352.0, 4080.0, 4352.0, 4080.0, 4608.0, 4352.0, 4080.0, 4080.0, 4608.0, 4080.0, 4080.0, 4080.0, 3840.0, 4080.0, 4352.0, 4080.0, 4608.0, 4352.0, 4352.0, 4080.0, 4352.0, 4080.0, 4352.0, 4608.0, 4352.0, 4608.0, 4352.0, 4608.0, 4608.0, 4352.0, 4080.0, 4928.0, 4608.0, 4928.0, 4608.0, 4080.0, 4608.0, 4608.0, 4928.0, 4352.0, 4352.0, 4352.0, 4608.0, 4080.0, 4608.0, 4352.0, 4608.0, 4352.0, 4608.0, 4608.0, 4928.0, 4352.0, 4608.0, 4608.0, 4608.0, 4608.0, 4608.0, 4608.0, 4608.0, 4608.0, 4608.0, 4080.0, 4352.0, 4608.0, 5248.0, 4352.0, 4608.0, 4352.0, 5248.0, 4608.0, 4928.0, 4608.0, 4608.0, 4608.0, 4928.0, 4928.0, 4608.0, 5248.0, 4928.0, 4608.0, 5248.0, 4608.0, 4608.0, 4928.0, 4608.0, 4608.0, 4352.0, 4352.0, 4928.0, 4928.0, 4352.0, 4352.0, 4928.0, 4928.0, 5248.0, 4608.0, 4928.0, 5248.0, 4928.0, 4608.0, 4608.0, 4608.0, 4608.0, 4928.0, 4608.0, 4352.0, 4928.0, 5248.0, 4608.0, 4928.0, 5248.0, 4608.0, 5248.0, 4608.0, 4928.0, 4928.0, 4928.0, 5248.0, 4928.0, 4928.0, 5248.0, 4352.0, 4928.0, 4608.0, 4928.0, 4928.0, 5248.0, 4928.0, 4928.0, 4928.0, 4928.0, 4928.0, 4352.0, 4928.0, 4608.0, 4928.0, 5248.0]","[0.0, 0.0014044363051652908, 0.0015289888251572847, 0.0020929088350385427, 0.001539101474918425, 0.0009933363180607557, 0.001413486315868795, 0.0016971604200080037, 0.0014082756824791431, 0.002391456626355648, 0.0019398242002353072, 0.001397911342792213, 0.00215526157990098, 0.0022955883760005236, 0.0020257141441106796, 0.001949721947312355, 0.002013974590227008, 0.0017365417443215847, 0.0016538493800908327, 0.0014066443545743823, 0.0014955756487324834, 0.0016520051285624504, 0.002068509114906192, 0.0023412469308823347, 0.002076929435133934, 0.0018182570347562432, 0.0022569657303392887, 0.002119260374456644, 0.0017256963765248656, 0.001813685055822134, 0.001899335184134543, 0.0014883412513881922, 0.0017906967550516129, 0.0018605035729706287, 0.002104394370689988, 0.00225742906332016, 0.0016813615802675486, 0.0019126819679513574, 0.0013644256396219134, 0.002065518405288458, 0.0026426624972373247, 0.0015732384053990245, 0.002445697085931897, 0.001490127993747592, 0.0016500288620591164, 0.0021456570830196142, 0.0026893955655395985, 0.0011073743226006627, 0.0014535487862303853, 0.002298378851264715, 0.0018619663314893842, 0.00236367410980165, 0.002392344642430544, 0.001283590798266232, 0.0018645121017470956, 0.0026298488955944777, 0.0023032946046441793, 0.0029571219347417355, 0.0013305613538250327, 0.0016171165043488145, 0.0016131700249388814, 0.002332944655790925, 0.0024050422944128513, 0.001571156899444759, 0.0020804726518690586, 0.0022216737270355225, 0.0022009965032339096, 0.0020006669219583273, 0.002191531704738736, 0.002230575308203697, 0.0021027459297329187, 0.0012427506735548377, 0.002147163264453411, 0.0017815710743889213, 0.0021157434675842524, 0.0022485945373773575, 0.0015697939088568091, 0.002279320266097784, 0.0019412664696574211, 0.0020119897089898586, 0.002111888723447919, 0.0016106384573504329, 0.001860657474026084, 0.0016880764160305262, 0.001867917482741177, 0.001773707801476121, 0.0018215690506622195, 0.0016061279457062483, 0.0022627227008342743, 0.0020659449510276318, 0.0017004687106236815, 0.0016572754830121994, 0.0021858373656868935, 0.0020514503121376038, 0.0030149093363434076, 0.0017762724310159683, 0.0022314973175525665, 0.0017324588261544704, 0.0019108544802293181, 0.0021198769100010395, 0.0015272217569872737, 0.0022470038384199142, 0.001695055398158729, 0.001740932697430253, 0.001982406247407198, 0.0021465427707880735, 0.002295013517141342, 0.002067397115752101, 0.0013631293550133705, 0.0015186340315267444, 0.0018904368625953794, 0.0017781085334718227, 0.0021933454554528, 0.0018613500287756324, 0.001569664105772972, 0.0016141048399731517, 0.001238850294612348, 0.0027273856103420258, 0.001899335184134543, 0.0030909318011254072, 0.0018576618749648333, 0.001977587351575494, 0.0023611283395439386, 0.0022415940184146166, 0.0018306636484339833, 0.0015123027842491865, 0.002584615256637335, 0.0022889007814228535, 0.0016537124756723642, 0.001983143389225006, 0.0021438878029584885, 0.0018041660077869892, 0.002199261449277401, 0.0018580453470349312, 0.0028967515099793673, 0.0018072783714160323, 0.0017420158255845308, 0.001484291278757155, 0.0019389439839869738, 0.001733102253638208, 0.0030116753187030554, 0.0015990815591067076, 0.002026468049734831, 0.0015573131386190653, 0.0014895113417878747, 0.0019159482326358557, 0.002174269873648882, 0.0019819969311356544, 0.0019367866916581988, 0.002387420739978552, 0.0020233721006661654, 0.0017807595431804657, 0.0017438963986933231, 0.0019340768922120333, 0.00165652041323483, 0.002491177059710026, 0.0017312448471784592, 0.0021483164746314287, 0.0019801980815827847, 0.001693515107035637, 0.0021204939112067223, 0.001608512713573873, 0.0018266355618834496, 0.002357612596824765, 0.0024413454812020063, 0.0018937834538519382, 0.002367503009736538, 0.002357710152864456, 0.0025652695912867785, 0.0015644298400729895, 0.002038863254711032, 0.0021916222758591175, 0.0019579255022108555, 0.0021984402555972338, 0.0019203269621357322, 0.0018959690351039171, 0.002149648731574416, 0.0021837661042809486, 0.0017363264923915267, 0.0018248175038024783, 0.0021888164337724447, 0.0021111893001943827, 0.0024387219455093145, 0.0019597436767071486, 0.002371738897636533, 0.0019373453687876463, 0.002192710293456912, 0.0017060585087165236, 0.002508430043235421, 0.0022298386320471764, 0.0019770171493291855, 0.0023622047156095505, 0.002324905479326844, 0.002400761703029275, 0.0023963970597833395, 0.001987001858651638, 0.002444785088300705, 0.0015692752785980701, 0.001990875229239464, 0.0017368290573358536, 0.001885709585621953, 0.0025316455867141485, 0.0019763659220188856, 0.0022719763219356537, 0.0026390664279460907, 0.0016882154159247875, 0.002477700589224696, 0.0017793594161048532, 0.0027939847204834223, 0.0018327988218516111, 0.002106219530105591, 0.0018253473099321127, 0.0026919571682810783, 0.0020703934133052826, 0.0017309593968093395, 0.0021427394822239876, 0.002126860897988081, 0.0023607371840626, 0.0022434566635638475, 0.0019769356586039066, 0.0019572731107473373, 0.002174805151298642, 0.0019946808461099863, 0.0021723092067986727, 0.002225152449682355, 0.002450980246067047, 0.0023678962606936693, 0.0021056977566331625, 0.002431385451927781, 0.0026016931515187025, 0.0020697934087365866, 0.0026867275591939688, 0.0024022532161325216, 0.0029367967508733273, 0.0021104903426021338, 0.001975146122276783, 0.0017835662001743913, 0.0017881648382171988, 0.0015167042147368193, 0.0022026433143764734, 0.0019218974048271775, 0.0019298677798360586, 0.0016106384573504329, 0.0018155559664592147, 0.002119524637237191, 0.00270079355686903, 0.0031227879226207733, 0.0020250442903488874, 0.002411141060292721, 0.0021826867014169693, 0.0018588127568364143, 0.002352358540520072, 0.0022456024307757616, 0.0023996690288186073, 0.0018598883179947734, 0.0022550225257873535, 0.0024907635524868965, 0.002349159214645624, 0.0027291900478303432, 0.002715825801715255, 0.002197802299633622, 0.0025522804353386164, 0.002221308182924986, 0.0020953163038939238, 0.0020249607041478157, 0.0023129982873797417, 0.0025127697736024857, 0.001933917636051774, 0.001808689907193184, 0.0021373669151216745, 0.00181226572021842, 0.0023464513942599297, 0.001533615286462009, 0.0019899671897292137, 0.0015992126427590847, 0.0013669689651578665, 0.0022700070403516293, 0.0031632399186491966, 0.001991288037970662, 0.0025648451410233974, 0.002327901544049382, 0.0014860681258141994, 0.0021880031563341618, 0.001517139608040452, 0.001897063571959734, 0.002459419658407569, 0.0021531200036406517, 0.0016887716483324766, 0.0023616175167262554, 0.001775685464963317, 0.0018637399189174175, 0.0028844568878412247, 0.002487562131136656, 0.0022654253989458084, 0.002511114813387394, 0.002430383814498782, 0.0025439986493438482, 0.0019825699273496866, 0.002137279137969017, 0.002151160268113017, 0.0024843693245202303, 0.002421605633571744, 0.0020705650094896555, 0.0023515820503234863, 0.002229102188721299, 0.002538705011829734, 0.0017386984545737505, 0.002687838627025485, 0.002429983578622341, 0.0020633020903915167, 0.0025255661457777023, 0.002117500640451908, 0.002452508546411991, 0.0022652389016002417, 0.002432688605040312, 0.002352358540520072, 0.001997502986341715, 0.001643655588850379, 0.002574216341599822, 0.0018154061399400234, 0.0016010509571060538, 0.0021065676119178534, 0.00276962504722178, 0.002372232498601079, 0.001621351926587522, 0.0021182040218263865, 0.002883625216782093, 0.00256750057451427, 0.0029140161350369453, 0.0017646093619987369, 0.0017843804089352489, 0.001953206257894635, 0.0019442376215010881, 0.0022771498188376427, 0.0017278261948376894, 0.0022620712406933308, 0.0020586298778653145, 0.002805049065500498, 0.002234637038782239, 0.001910537015646696, 0.0017317445017397404, 0.0024631554260849953]","[0.0, 0.000901424849871546, 0.001772379968315363, 0.0016888940008357167, 0.0015139164170250297, 0.0013059376506134868, 0.0011054545175284147, 0.0018650192068889737, 0.0013087482657283545, 0.0017157146940007806, 0.001541369711048901, 0.0016011178959161043, 0.0018011736683547497, 0.0015112325781956315, 0.0015416836831718683, 0.0019194973865523934, 0.002037430414929986, 0.001744135282933712, 0.0015412800712510943, 0.0017731527332216501, 0.0018053168896585703, 0.0015113643603399396, 0.0018896447727456689, 0.0024128607474267483, 0.0018917345441877842, 0.001627670368179679, 0.0021238834597170353, 0.0016278123948723078, 0.0019501688657328486, 0.0016853116685524583, 0.0017164136515930295, 0.0018624141812324524, 0.0020056390203535557, 0.0022703458089381456, 0.002061496488749981, 0.002119997749105096, 0.0019479008624330163, 0.00171586440410465, 0.001481998129747808, 0.0018031117506325245, 0.002007856732234359, 0.0015684451209381223, 0.002092840615659952, 0.0017755267908796668, 0.00182868423871696, 0.0019485240336507559, 0.0024153885897248983, 0.0020648539066314697, 0.0018036363180726767, 0.0021246871910989285, 0.0016869782702997327, 0.002008850686252117, 0.0028212436009198427, 0.002178902504965663, 0.002385801635682583, 0.00224045617505908, 0.002411668887361884, 0.00218016910366714, 0.0019197207875549793, 0.0018606814555823803, 0.0021227102261036634, 0.002327069640159607, 0.0018611684208735824, 0.0022401304449886084, 0.0024153185077011585, 0.0026430438738316298, 0.0020933884661644697, 0.00209253653883934, 0.0028793299570679665, 0.002615974983200431, 0.0022120673675090075, 0.0019773191306740046, 0.0024150372482836246, 0.002412089379504323, 0.0020372525323182344, 0.002177700400352478, 0.0017139703268185258, 0.002210073173046112, 0.0017181129660457373, 0.002063713502138853, 0.0020087920129299164, 0.0017463181866332889, 0.002006747294217348, 0.0017171629006043077, 0.0026181056164205074, 0.002415669849142432, 0.002065634820610285, 0.0019483540672808886, 0.0025009450037032366, 0.0022947771940380335, 0.0018636614549905062, 0.0020951549522578716, 0.0029676181729882956, 0.0018917896086350083, 0.0023545827716588974, 0.0019207823788747191, 0.0025597766507416964, 0.00243952008895576, 0.0016287592006847262, 0.0025287021417170763, 0.0018610061379149556, 0.002155046910047531, 0.0028497485909610987, 0.0021232040598988533, 0.0019771463703364134, 0.0024161620531231165, 0.0026739523746073246, 0.002208275254815817, 0.002296979073435068, 0.0023860097862780094, 0.002502327784895897, 0.002096374984830618, 0.002296979073435068, 0.0019791030790656805, 0.0023280177265405655, 0.0020910780876874924, 0.002324905479326844, 0.0021799157839268446, 0.002179662464186549, 0.003606328507885337, 0.0020907744765281677, 0.0023826819378882647, 0.00282042333856225, 0.0023853157181292772, 0.0027312084566801786, 0.0025300257839262486, 0.0019766867626458406, 0.002095215953886509, 0.0025547975674271584, 0.0028200133237987757, 0.0027860812842845917, 0.0019788150675594807, 0.0021818182431161404, 0.0022409127559512854, 0.0033452599309384823, 0.002705533290281892, 0.0027598629239946604, 0.00200703926384449, 0.0025617885403335094, 0.0023546512238681316, 0.0026771423872560263, 0.0017435778863728046, 0.0026213848032057285, 0.0021233276929706335, 0.002648428315296769, 0.0024424996227025986, 0.002296444959938526, 0.0022977138869464397, 0.002819685498252511, 0.0023536249063909054, 0.0025903719943016768, 0.0029096833895891905, 0.0019768590573221445, 0.0026753516867756844, 0.0022696852684020996, 0.0020936320070177317, 0.0021225865930318832, 0.002062035258859396, 0.0028265872970223427, 0.0021222163923084736, 0.0022395439445972443, 0.002155046910047531, 0.0017138209659606218, 0.002588789677247405, 0.002327543683350086, 0.0022957774344831705, 0.002092658309265971, 0.0021806128788739443, 0.0022690908517688513, 0.002326392801478505, 0.003231723327189684, 0.0029407483525574207, 0.002791428007185459, 0.002212775871157646, 0.0027933772653341293, 0.0021224631927907467, 0.0027628326788544655, 0.0029078221414238214, 0.0027620294131338596, 0.0017742874333634973, 0.0021246252581477165, 0.002527747070416808, 0.0026786234229803085, 0.0027075812686234713, 0.002209816128015518, 0.0025262790732085705, 0.0031072134152054787, 0.0027025456074625254, 0.002822146750986576, 0.003054190194234252, 0.0023855932522565126, 0.002821817994117737, 0.0026170399505645037, 0.002587434835731983, 0.0022679693065583706, 0.002439661882817745, 0.0024999999441206455, 0.002381021622568369, 0.002471217652782798, 0.0021193206775933504, 0.0023834437597543, 0.002673796843737364, 0.0031152646988630295, 0.002907906658947468, 0.002702388446778059, 0.0020960699766874313, 0.003171739634126425, 0.0024997093714773655, 0.0027616280131042004, 0.0019765717443078756, 0.0028187022544443607, 0.0025609685108065605, 0.002413772977888584, 0.0026435814797878265, 0.0029114624485373497, 0.0020964969880878925, 0.0025334886740893126, 0.0027063991874456406, 0.0022086601238697767, 0.002502036513760686, 0.0026491223834455013, 0.0024443473666906357, 0.002618791302666068, 0.0024128607474267483, 0.002296444959938526, 0.0027602638583630323, 0.002531866542994976, 0.002444489626213908, 0.0027362965047359467, 0.0026437349151819944, 0.002612785203382373, 0.002380745019763708, 0.0024151778779923916, 0.002412510337308049, 0.0027621097397059202, 0.0020336422603577375, 0.002418062649667263, 0.0024983296170830727, 0.002878576284274459, 0.0025000725872814655, 0.0023575981613248587, 0.0027310496661812067, 0.0015985583886504173, 0.0027662115171551704, 0.0025293638464063406, 0.002850162796676159, 0.002616279060021043, 0.002558139618486166, 0.0024127906654030085, 0.0027078965213149786, 0.002328966511413455, 0.0021520385053008795, 0.0025268662720918655, 0.0028499141335487366, 0.0025875854771584272, 0.002211423823609948, 0.0021787758450955153, 0.0032246820628643036, 0.0027335116174072027, 0.002878492698073387, 0.002559404354542494, 0.0024451301433146, 0.0025598511565476656, 0.0027034098748117685, 0.002354993484914303, 0.0021802959963679314, 0.00311717065051198, 0.002760745119303465, 0.0025616392958909273, 0.0027329553849995136, 0.002065935404971242, 0.0031435557175427675, 0.0023552672937512398, 0.0029965380672365427, 0.0026742632035166025, 0.002727483632043004, 0.0023530779872089624, 0.0032846927642822266, 0.0029073148034512997, 0.0024132817052304745, 0.002585706068202853, 0.0020371340215206146, 0.002321060746908188, 0.0019473913125693798, 0.0030270395800471306, 0.0027637167368084192, 0.002354035386815667, 0.002645425731316209, 0.0024715049657970667, 0.002705533290281892, 0.0023525310680270195, 0.0027594619896262884, 0.0030222893692553043, 0.002732478780671954, 0.002298850566148758, 0.002962446538731456, 0.002966927597299218, 0.002443707548081875, 0.0028547290712594986, 0.0023829590063542128, 0.002704274607822299, 0.0027923211455345154, 0.002295444021001458, 0.0027617081068456173, 0.0019186603603884578, 0.0024095685221254826, 0.002647966146469116, 0.0029377546161413193, 0.0025024733040481806, 0.002647580811753869, 0.0026138476096093655, 0.0023253110703080893, 0.0022963781375437975, 0.0034002731554210186, 0.002993315923959017, 0.002530099358409643, 0.0025008723605424166, 0.001948920893482864, 0.002590975258499384, 0.0020641935989260674, 0.0022086601238697767, 0.0021518508438020945, 0.0029712487012147903, 0.00224156491458416, 0.0019761123694479465, 0.002383097540587187, 0.0030495773535221815, 0.002790535567328334, 0.0027624310459941626, 0.002326257759705186, 0.0020068057347089052, 0.0023844141978770494, 0.0021509751677513123, 0.0029103609267622232, 0.003047099569812417, 0.0025279673282057047, 0.0023255813866853714, 0.0028480093460530043, 0.0021212296560406685, 0.002615898847579956, 0.00203606765717268, 0.0022386976052075624]","[0.0, 0.0, 0.0, 0.0, 0.0, 0.0, 0.0, 0.00010016026499215513, 3.338675378472544e-05, 0.0, 3.338675378472544e-05, 0.0, 6.677350756945089e-05, 0.00010016026499215513, 0.0, 0.00010016026499215513, 0.00013354701513890177, 0.00013354701513890177, 3.338675378472544e-05, 0.0, 3.338675378472544e-05, 3.338675378472544e-05, 0.0001669337652856484, 0.00026709403027780354, 0.00010016026499215513, 0.00010016026499215513, 0.0, 6.677350756945089e-05, 0.00010016026499215513, 3.338675378472544e-05, 6.677350756945089e-05, 3.338675378472544e-05, 0.0, 3.338675378472544e-05, 0.0003004807804245502, 0.00020032052998431027, 0.0002337072801310569, 0.00010016026499215513, 0.00010016026499215513, 6.677350756945089e-05, 0.0003004807804245502, 3.338675378472544e-05, 0.00020032052998431027, 3.338675378472544e-05, 0.00013354701513890177, 0.00013354701513890177, 0.0002337072801310569, 3.338675378472544e-05, 6.677350756945089e-05, 0.00010016026499215513, 0.0001669337652856484, 0.0, 0.0002337072801310569, 0.00010016026499215513, 0.0, 3.338675378472544e-05, 0.00013354701513890177, 0.0005675748107023537, 3.338675378472544e-05, 3.338675378472544e-05, 6.677350756945089e-05, 0.0005008013104088604, 3.338675378472544e-05, 0.0002337072801310569, 6.677350756945089e-05, 0.0004340278101153672, 0.00010016026499215513, 6.677350756945089e-05, 0.0009348291205242276, 0.0001669337652856484, 6.677350756945089e-05, 6.677350756945089e-05, 6.677350756945089e-05, 0.00010016026499215513, 0.0, 3.338675378472544e-05, 3.338675378472544e-05, 6.677350756945089e-05, 0.00020032052998431027, 0.00013354701513890177, 0.0, 3.338675378472544e-05, 6.677350756945089e-05, 0.00010016026499215513, 6.677350756945089e-05, 6.677350756945089e-05, 3.338675378472544e-05, 6.677350756945089e-05, 0.0001669337652856484, 0.0, 3.338675378472544e-05, 6.677350756945089e-05, 0.00020032052998431027, 0.0001669337652856484, 3.338675378472544e-05, 0.0, 0.00010016026499215513, 0.00010016026499215513, 6.677350756945089e-05, 0.0001669337652856484, 6.677350756945089e-05, 0.00020032052998431027, 0.00013354701513890177, 3.338675378472544e-05, 0.00010016026499215513, 6.677350756945089e-05, 0.0, 3.338675378472544e-05, 0.00010016026499215513, 6.677350756945089e-05, 0.0, 0.0003338675305712968, 3.338675378472544e-05, 6.677350756945089e-05, 0.0001669337652856484, 3.338675378472544e-05, 0.00010016026499215513, 0.00013354701513890177, 0.0002337072801310569, 0.0003004807804245502, 0.00013354701513890177, 0.0005341880605556071, 6.677350756945089e-05, 0.00013354701513890177, 0.00026709403027780354, 3.338675378472544e-05, 0.0002337072801310569, 6.677350756945089e-05, 0.0002337072801310569, 0.0010016026208177209, 0.0003338675305712968, 0.0001669337652856484, 3.338675378472544e-05, 0.00020032052998431027, 0.0005341880605556071, 0.00013354701513890177, 0.0003004807804245502, 0.00013354701513890177, 0.00010016026499215513, 0.00010016026499215513, 0.0003004807804245502, 0.00010016026499215513, 3.338675378472544e-05, 0.00013354701513890177, 6.677350756945089e-05, 0.0, 0.00020032052998431027, 6.677350756945089e-05, 0.0001669337652856484, 0.000634348310995847, 0.00013354701513890177, 0.0003338675305712968, 0.00036725428071804345, 0.00026709403027780354, 0.0002337072801310569, 0.00036725428071804345, 0.0003004807804245502, 0.0, 0.0, 0.0, 0.0005341880605556071, 6.677350756945089e-05, 6.677350756945089e-05, 0.00013354701513890177, 0.00026709403027780354, 6.677350756945089e-05, 0.00010016026499215513, 0.0003004807804245502, 0.0001669337652856484, 0.0002337072801310569, 6.677350756945089e-05, 0.000634348310995847, 0.0001669337652856484, 0.00013354701513890177, 3.338675378472544e-05, 0.00020032052998431027, 0.00010016026499215513, 0.0003338675305712968, 0.0, 0.0001669337652856484, 0.0001669337652856484, 0.0003004807804245502, 0.0003338675305712968, 0.0004340278101153672, 0.00036725428071804345, 0.00013354701513890177, 0.0005008013104088604, 6.677350756945089e-05, 0.0007011218112893403, 0.0004340278101153672, 0.0001669337652856484, 0.0005008013104088604, 0.0002337072801310569, 0.00010016026499215513, 0.0005341880605556071, 0.0005008013104088604, 0.00040064105996862054, 0.0001669337652856484, 0.00010016026499215513, 0.0002337072801310569, 0.0003004807804245502, 0.00013354701513890177, 0.0004674145602621138, 0.0001669337652856484, 0.0004674145602621138, 0.0002337072801310569, 0.0003004807804245502, 0.00010016026499215513, 0.0007345085614360869, 0.00040064105996862054, 0.0001669337652856484, 0.00026709403027780354, 3.338675378472544e-05, 0.0001669337652856484, 0.00010016026499215513, 0.00026709403027780354, 0.0002337072801310569, 6.677350756945089e-05, 0.00040064105996862054, 6.677350756945089e-05, 6.677350756945089e-05, 0.0002337072801310569, 0.00020032052998431027, 0.00020032052998431027, 0.0005341880605556071, 6.677350756945089e-05, 0.0003004807804245502, 0.00013354701513890177, 0.0004674145602621138, 0.00010016026499215513, 0.00013354701513890177, 6.677350756945089e-05, 3.338675378472544e-05, 0.00013354701513890177, 0.0003338675305712968, 0.00013354701513890177, 0.00013354701513890177, 6.677350756945089e-05, 0.00010016026499215513, 0.0003338675305712968, 0.0002337072801310569, 0.0001669337652856484, 6.677350756945089e-05, 0.00010016026499215513, 0.0003338675305712968, 0.0005008013104088604, 0.00020032052998431027, 0.0001669337652856484, 0.0003338675305712968, 0.00010016026499215513, 0.00036725428071804345, 0.00020032052998431027, 0.00026709403027780354, 0.0003004807804245502, 0.0002337072801310569, 0.00013354701513890177, 0.0001669337652856484, 0.0016025642398744822, 0.0003338675305712968, 0.0003338675305712968, 0.0002337072801310569, 0.0001669337652856484, 0.0002337072801310569, 0.00020032052998431027, 0.00010016026499215513, 0.00013354701513890177, 0.0005008013104088604, 0.0001669337652856484, 0.00013354701513890177, 0.00036725428071804345, 0.00013354701513890177, 0.0003338675305712968, 0.00013354701513890177, 0.0004340278101153672, 0.0003004807804245502, 0.00010016026499215513, 0.0001669337652856484, 0.0019364317413419485, 0.0002337072801310569, 0.00020032052998431027, 0.00013354701513890177, 0.0001669337652856484, 0.00036725428071804345, 3.338675378472544e-05, 3.338675378472544e-05, 0.0004340278101153672, 0.00013354701513890177, 0.0001669337652856484, 0.00020032052998431027, 0.00013354701513890177, 0.0001669337652856484, 0.00036725428071804345, 0.0006677350611425936, 0.00020032052998431027, 0.00010016026499215513, 0.0004674145602621138, 0.0004340278101153672, 0.00010016026499215513, 6.677350756945089e-05, 6.677350756945089e-05, 0.0005008013104088604, 0.0003338675305712968, 0.0002337072801310569, 0.00020032052998431027, 0.00020032052998431027, 0.00010016026499215513, 0.0003004807804245502, 0.0002337072801310569, 0.00010016026499215513, 0.0006009615608491004, 0.00020032052998431027, 0.00013354701513890177, 0.00020032052998431027, 0.00036725428071804345, 0.0003338675305712968, 0.0004340278101153672, 0.00013354701513890177, 0.00020032052998431027, 0.0001669337652856484, 6.677350756945089e-05, 0.0001669337652856484, 0.0001669337652856484, 0.00013354701513890177, 0.0002337072801310569, 0.00013354701513890177, 6.677350756945089e-05, 0.0004340278101153672, 0.00020032052998431027, 0.00020032052998431027, 3.338675378472544e-05, 0.00013354701513890177, 0.00013354701513890177, 0.00013354701513890177, 0.0003004807804245502, 0.00020032052998431027, 0.0001669337652856484, 0.00013354701513890177, 0.0003338675305712968, 0.0002337072801310569, 6.677350756945089e-05, 3.338675378472544e-05, 6.677350756945089e-05]","[0.0, 0.01697717420756817, 0.02497299201786518, 0.026271840557456017, 0.026044286787509918, 0.02402535453438759, 0.023422742262482643, 0.03143617883324623, 0.02912682667374611, 0.0274182241410017, 0.027630992233753204, 0.028179839253425598, 0.028844330459833145, 0.037115853279829025, 0.02921191230416298, 0.027732154354453087, 0.02813020534813404, 0.029333334416151047, 0.025460317730903625, 0.03266730159521103, 0.02691459283232689, 0.030146919190883636, 0.03450900688767433, 0.03226427361369133, 0.03271970525383949, 0.02834085188806057, 0.03995632007718086, 0.03352025896310806, 0.030132068321108818, 0.027813218533992767, 0.028249666094779968, 0.03238506615161896, 0.030773097649216652, 0.03409740328788757, 0.030316540971398354, 0.03506293520331383, 0.030287442728877068, 0.03053002618253231, 0.026920635253190994, 0.030198995023965836, 0.029456673189997673, 0.026105688884854317, 0.02991398796439171, 0.024275844916701317, 0.03313368186354637, 0.03254569694399834, 0.03577091544866562, 0.02661694772541523, 0.025162387639284134, 0.0338449701666832, 0.03234398737549782, 0.03444788604974747, 0.037926752120256424, 0.023376623168587685, 0.03487120941281319, 0.03391025587916374, 0.035844586789608, 0.03342314809560776, 0.0279491376131773, 0.031038623303174973, 0.027791878208518028, 0.03238764777779579, 0.03021491877734661, 0.031111111864447594, 0.031566374003887177, 0.030582213774323463, 0.028569625690579414, 0.029352733865380287, 0.03713814169168472, 0.033763591200113297, 0.03347787633538246, 0.025322867557406425, 0.03155617415904999, 0.034493669867515564, 0.031330931931734085, 0.03485962003469467, 0.02632080763578415, 0.02903960645198822, 0.02639109641313553, 0.03350019454956055, 0.03281180560588837, 0.030912097543478012, 0.028252175077795982, 0.024795500561594963, 0.036099717020988464, 0.03441024571657181, 0.03187377378344536, 0.031493548303842545, 0.03218376263976097, 0.03425702452659607, 0.03077409230172634, 0.03367088735103607, 0.03888074308633804, 0.03321981802582741, 0.03173694759607315, 0.030010173097252846, 0.031645167618989944, 0.034027907997369766, 0.030385171994566917, 0.03117521107196808, 0.026163345202803612, 0.033136315643787384, 0.033718567341566086, 0.028967173770070076, 0.030782930552959442, 0.025714466348290443, 0.03331037610769272, 0.03428353741765022, 0.031665291637182236, 0.030375031754374504, 0.034352365881204605, 0.028375547379255295, 0.03664722293615341, 0.03013959527015686, 0.033509254455566406, 0.033789779990911484, 0.031679388135671616, 0.03660163655877113, 0.03295794501900673, 0.03638637065887451, 0.02953157015144825, 0.03275025635957718, 0.034504592418670654, 0.028966300189495087, 0.030375448986887932, 0.033419523388147354, 0.02943255566060543, 0.032249949872493744, 0.032829564064741135, 0.029430460184812546, 0.03341623395681381, 0.02598405070602894, 0.03226621076464653, 0.02723165974020958, 0.03341576084494591, 0.03264913707971573, 0.033741943538188934, 0.03162861987948418, 0.03370285406708717, 0.03018723614513874, 0.03567560762166977, 0.02855856344103813, 0.03116273321211338, 0.028194399550557137, 0.031140990555286407, 0.03647893667221069, 0.03014138899743557, 0.03022012859582901, 0.03535643592476845, 0.029471933841705322, 0.03142693638801575, 0.03299765661358833, 0.028198333457112312, 0.02890949696302414, 0.028437519446015358, 0.0311021376401186, 0.032852768898010254, 0.03489924222230911, 0.03351172059774399, 0.025054050609469414, 0.02763613499701023, 0.03142128884792328, 0.025996971875429153, 0.03680436685681343, 0.0328492596745491, 0.03112616576254368, 0.027490541338920593, 0.03388325124979019, 0.028350351378321648, 0.030423112213611603, 0.03552788868546486, 0.02774074859917164, 0.03690917044878006, 0.030452363193035126, 0.0352499820291996, 0.03604695945978165, 0.03162708133459091, 0.03229924663901329, 0.0379754863679409, 0.029385743662714958, 0.03097570315003395, 0.035109955817461014, 0.036968812346458435, 0.03276565298438072, 0.030811797827482224, 0.03438377007842064, 0.03660006448626518, 0.03653169050812721, 0.03118196874856949, 0.03409885987639427, 0.02931595966219902, 0.03606225550174713, 0.03659536689519882, 0.035114407539367676, 0.036483824253082275, 0.030293429270386696, 0.029298236593604088, 0.031931810081005096, 0.032478198409080505, 0.031357116997241974, 0.028696434572339058, 0.03730824962258339, 0.034826505929231644, 0.03471515700221062, 0.031048770993947983, 0.03156549483537674, 0.03346056118607521, 0.032593533396720886, 0.037248365581035614, 0.03145206719636917, 0.030212441459298134, 0.03543680161237717, 0.033312223851680756, 0.038071706891059875, 0.031904034316539764, 0.028082717210054398, 0.030394183471798897, 0.032423533499240875, 0.02899281494319439, 0.03200051188468933, 0.03196633979678154, 0.032121289521455765, 0.03131300210952759, 0.030956365168094635, 0.03235894814133644, 0.03630862385034561, 0.028240039944648743, 0.03308729827404022, 0.0343969352543354, 0.036829717457294464, 0.033462196588516235, 0.03817569836974144, 0.037803951650857925, 0.03236040845513344, 0.03290850296616554, 0.0315977968275547, 0.030517468228936195, 0.031090693548321724, 0.03487548977136612, 0.03326193615794182, 0.030811963602900505, 0.03208830952644348, 0.028304288163781166, 0.03159034624695778, 0.03237999230623245, 0.03528892621397972, 0.034863997250795364, 0.03430967777967453, 0.029972923919558525, 0.032835058867931366, 0.03185604512691498, 0.034702323377132416, 0.028321482241153717, 0.03425091877579689, 0.029413633048534393, 0.03319181874394417, 0.03073136880993843, 0.034392546862363815, 0.03662794455885887, 0.03383651003241539, 0.03432147204875946, 0.03694707155227661, 0.0322539359331131, 0.032059501856565475, 0.032215017825365067, 0.031414944678545, 0.032630909234285355, 0.036013562232255936, 0.03318598121404648, 0.03459985926747322, 0.033020373433828354, 0.04148555546998978, 0.0301075279712677, 0.030920013785362244, 0.025660812854766846, 0.029439697042107582, 0.030623288825154305, 0.02922690100967884, 0.031709935516119, 0.03520903363823891, 0.036272041499614716, 0.03214308246970177, 0.027556801214814186, 0.029264215379953384, 0.03384752944111824, 0.03545688837766647, 0.032562557607889175, 0.03474262356758118, 0.029999999329447746, 0.037722647190093994, 0.030713697895407677, 0.03829461336135864, 0.030349012464284897, 0.03167709708213806, 0.035924315452575684, 0.03473818674683571, 0.03321218490600586, 0.035739269107580185, 0.03479430824518204, 0.030641375109553337, 0.033956289291381836, 0.03076033852994442, 0.032303016632795334, 0.03408294916152954, 0.035643815994262695, 0.031116418540477753, 0.03149556368589401, 0.033771347254514694, 0.03628002107143402, 0.026873845607042313, 0.03744535148143768, 0.036022961139678955, 0.03199193999171257, 0.03698262572288513, 0.035579927265644073, 0.03272842988371849, 0.033383630216121674, 0.02935897372663021, 0.03450886160135269, 0.02885534055531025, 0.03325415775179863, 0.02467251569032669, 0.03734518960118294, 0.03180789574980736, 0.026193175464868546, 0.03001450188457966, 0.037545494735240936, 0.03585001453757286, 0.03609273582696915, 0.03545735031366348, 0.028538955375552177, 0.02885402925312519, 0.029247555881738663, 0.03231324627995491, 0.03423342481255531, 0.03386250138282776, 0.02920500934123993, 0.036956798285245895, 0.03119649924337864, 0.03266283869743347, 0.028374673798680305, 0.031071452423930168]","[0.0, 0.01352326013147831, 0.016126109287142754, 0.02377547323703766, 0.022190406918525696, 0.02135816030204296, 0.017622729763388634, 0.03007117472589016, 0.026837175711989403, 0.024873828515410423, 0.026842009276151657, 0.022739481180906296, 0.025389917194843292, 0.03365297615528107, 0.030586542561650276, 0.029538903385400772, 0.02796200104057789, 0.028545618057250977, 0.024508919566869736, 0.027647269889712334, 0.028964776545763016, 0.031103072687983513, 0.033044420182704926, 0.03630124405026436, 0.03299856558442116, 0.027300668880343437, 0.032345011830329895, 0.029996385797858238, 0.02634408511221409, 0.028980258852243423, 0.030744336545467377, 0.03230438008904457, 0.031086210161447525, 0.032974909991025925, 0.03184713423252106, 0.03253362700343132, 0.030144404619932175, 0.03368762508034706, 0.02426217496395111, 0.026661861687898636, 0.0281816553324461, 0.022698385640978813, 0.028917405754327774, 0.022580644115805626, 0.027164995670318604, 0.029904522001743317, 0.031221963465213776, 0.021978022530674934, 0.02625427208840847, 0.0324489064514637, 0.026282628998160362, 0.038654256612062454, 0.035109829157590866, 0.02429736964404583, 0.03629177063703537, 0.031788792461156845, 0.02971014566719532, 0.03197832033038139, 0.023218141868710518, 0.028700361028313637, 0.024161558598279953, 0.026088522747159004, 0.027031896635890007, 0.02534603700041771, 0.03230438008904457, 0.02651652693748474, 0.028329122811555862, 0.026591895148158073, 0.03205474466085434, 0.02838033251464367, 0.029037462547421455, 0.022178146988153458, 0.033943966031074524, 0.026058632880449295, 0.02725968509912491, 0.029657933861017227, 0.025031743571162224, 0.02974044717848301, 0.018584704026579857, 0.02747650071978569, 0.030606765300035477, 0.023305844515562057, 0.0239553302526474, 0.021516945213079453, 0.03219424560666084, 0.025999641045928, 0.027677930891513824, 0.02451333776116371, 0.027031896635890007, 0.03230489790439606, 0.026809649541974068, 0.028540657833218575, 0.03791554272174835, 0.026716873049736023, 0.027642276138067245, 0.023856503888964653, 0.02518891729414463, 0.02326004020869732, 0.02790781296789646, 0.02603507600724697, 0.02362062782049179, 0.03215434029698372, 0.032089415937662125, 0.02394670434296131, 0.027421973645687103, 0.025250717997550964, 0.0273056048899889, 0.02663043513894081, 0.02958686649799347, 0.02585742622613907, 0.02927442453801632, 0.023072795942425728, 0.033555835485458374, 0.025641025975346565, 0.027997128665447235, 0.027252906933426857, 0.030220774933695793, 0.03380943834781647, 0.0253301989287138, 0.03296109288930893, 0.02709583379328251, 0.027168991044163704, 0.025613276287913322, 0.02428494207561016, 0.02464214526116848, 0.024148495867848396, 0.024028906598687172, 0.029432877898216248, 0.02713531255722046, 0.028525004163384438, 0.02865486405789852, 0.02135678380727768, 0.02877180464565754, 0.026905830949544907, 0.02752293460071087, 0.022653721272945404, 0.02339499443769455, 0.023753825575113297, 0.027215756475925446, 0.02601156011223793, 0.03374618664383888, 0.02606806717813015, 0.027485275641083717, 0.020518358796834946, 0.022596843540668488, 0.029215510934591293, 0.02926829271018505, 0.028087863698601723, 0.02926829271018505, 0.022640826180577278, 0.023126568645238876, 0.026580460369586945, 0.022390754893422127, 0.02595529891550541, 0.024596048519015312, 0.023800937458872795, 0.025974025949835777, 0.02707122080028057, 0.023847660049796104, 0.02022390626370907, 0.023046452552080154, 0.026616647839546204, 0.01760435476899147, 0.03383120521903038, 0.02425875887274742, 0.02624434232711792, 0.022423146292567253, 0.024720316752791405, 0.024276209995150566, 0.024152847006917, 0.028985507786273956, 0.026828832924365997, 0.02849414013326168, 0.024329157546162605, 0.029987430199980736, 0.02634427882730961, 0.026661861687898636, 0.028669310733675957, 0.029958490282297134, 0.023578112944960594, 0.026537565514445305, 0.026640087366104126, 0.025402503088116646, 0.022727271541953087, 0.02651515230536461, 0.02655510976910591, 0.03199999779462814, 0.030955828726291656, 0.026774482801556587, 0.026992982253432274, 0.023548444733023643, 0.026434095576405525, 0.024702487513422966, 0.022928325459361076, 0.02904040366411209, 0.023614894598722458, 0.023482657968997955, 0.023467345163226128, 0.024548737332224846, 0.0269531961530447, 0.024222705513238907, 0.028762662783265114, 0.027375200763344765, 0.034252747893333435, 0.02553422749042511, 0.02255639061331749, 0.027648113667964935, 0.026753434911370277, 0.027095375582575798, 0.02494126185774803, 0.022632626816630363, 0.02996053174138069, 0.023063063621520996, 0.026120081543922424, 0.025764895603060722, 0.02056141570210457, 0.024303074926137924, 0.024762246757745743, 0.02316322922706604, 0.0267792958766222, 0.023992838338017464, 0.027822652831673622, 0.0271143838763237, 0.022394798696041107, 0.026738934218883514, 0.029171951115131378, 0.02547542192041874, 0.031221963465213776, 0.026867276057600975, 0.029193108901381493, 0.034244079142808914, 0.031676679849624634, 0.02890484593808651, 0.028199566528201103, 0.024900756776332855, 0.025022665038704872, 0.023525217548012733, 0.024668965488672256, 0.02651515230536461, 0.025103846564888954, 0.02401864156126976, 0.026101142168045044, 0.02133815549314022, 0.027892006561160088, 0.027075812220573425, 0.029178673401474953, 0.03197254240512848, 0.028721097856760025, 0.018063582479953766, 0.02682403475046158, 0.02506265603005886, 0.02594594657421112, 0.02542680688202381, 0.024869345128536224, 0.022739578038454056, 0.023343509063124657, 0.023762017488479614, 0.029923830181360245, 0.031182408332824707, 0.02724156528711319, 0.02845308743417263, 0.030634181573987007, 0.02212628163397312, 0.027280939742922783, 0.023461468517780304, 0.026187464594841003, 0.029946524649858475, 0.025339365005493164, 0.028300197795033455, 0.03086085617542267, 0.0193930696696043, 0.03189964219927788, 0.024346258491277695, 0.02444724179804325, 0.024213949218392372, 0.02649853751063347, 0.02666424959897995, 0.024936754256486893, 0.029602888971567154, 0.024535449221730232, 0.02864394336938858, 0.024040186777710915, 0.024684585630893707, 0.01952630653977394, 0.029037462547421455, 0.025710176676511765, 0.024787407368421555, 0.025645656511187553, 0.022907648235559464, 0.02517080307006836, 0.026521343737840652, 0.02541295997798443, 0.029140271246433258, 0.024390244856476784, 0.027643151581287384, 0.024704813957214355, 0.02753284201025963, 0.026429342105984688, 0.027465667575597763, 0.02624434232711792, 0.027407139539718628, 0.02681785449385643, 0.022282609716057777, 0.02149178273975849, 0.0278128944337368, 0.02641165815293789, 0.022621184587478638, 0.026997840031981468, 0.02998204529285431, 0.021922729909420013, 0.030886627733707428, 0.025668837130069733, 0.026563063263893127, 0.03220553696155548, 0.02823018655180931, 0.025765765458345413, 0.027036769315600395, 0.02033105492591858, 0.02703186497092247, 0.02166065014898777, 0.02551574446260929, 0.018208039924502373, 0.031210986897349358, 0.025783348828554153, 0.020995475351810455, 0.02732042782008648, 0.02761126309633255, 0.021864835172891617, 0.02704652026295662, 0.02488279901444912, 0.019809111952781677, 0.022538766264915466, 0.023495391011238098, 0.027080344036221504, 0.026474347338080406, 0.02608223259449005, 0.02637283131480217, 0.026782482862472534, 0.02825063467025757, 0.02440788410604, 0.023398127406835556, 0.0241833608597517]","[0.0, 0.009615384973585606, 0.014022435992956161, 0.014222756959497929, 0.009915865957736969, 0.011818910017609596, 0.009715544991195202, 0.012019230984151363, 0.01171875, 0.015024038963019848, 0.011217948980629444, 0.009314903989434242, 0.019931891933083534, 0.022435897961258888, 0.019631410017609596, 0.01091746799647808, 0.018129006028175354, 0.010516826994717121, 0.013721955008804798, 0.01903044804930687, 0.010316506959497929, 0.014322916977107525, 0.018629807978868484, 0.017528045922517776, 0.016626602038741112, 0.011818910017609596, 0.019931891933083534, 0.018930288031697273, 0.011618589982390404, 0.010817307978868484, 0.011418269015848637, 0.014122596010565758, 0.01522435899823904, 0.016626602038741112, 0.014623397961258888, 0.015524839982390404, 0.01171875, 0.015725160017609596, 0.008713942021131516, 0.01642628200352192, 0.012820512987673283, 0.009415064007043839, 0.015524839982390404, 0.008814102970063686, 0.017027243971824646, 0.016626602038741112, 0.02163461595773697, 0.008713942021131516, 0.00821314100176096, 0.016626602038741112, 0.01822916604578495, 0.015424679964780807, 0.018529647961258888, 0.008413461968302727, 0.019330929964780807, 0.017127403989434242, 0.019330929964780807, 0.012620192021131516, 0.011818910017609596, 0.014523237012326717, 0.010416666977107525, 0.014723557978868484, 0.015625, 0.010616987012326717, 0.016025641933083534, 0.015024038963019848, 0.019130609929561615, 0.01252003200352192, 0.018930288031697273, 0.014723557978868484, 0.013621794991195202, 0.008513621985912323, 0.015524839982390404, 0.015424679964780807, 0.016025641933083534, 0.02083333395421505, 0.008914262987673283, 0.013321314007043839, 0.012419871985912323, 0.013120993971824646, 0.015524839982390404, 0.011217948980629444, 0.01642628200352192, 0.011518429964780807, 0.02213541604578495, 0.018830128014087677, 0.015825320035219193, 0.01302083395421505, 0.01792868599295616, 0.017027243971824646, 0.011518429964780807, 0.01612580195069313, 0.0234375, 0.01642628200352192, 0.019130609929561615, 0.011418269015848637, 0.016225961968302727, 0.014523237012326717, 0.012620192021131516, 0.01822916604578495, 0.009815705008804798, 0.02313701994717121, 0.019431089982390404, 0.011418269015848637, 0.012720352970063686, 0.010616987012326717, 0.017027243971824646, 0.014623397961258888, 0.014923878014087677, 0.015024038963019848, 0.017528045922517776, 0.008914262987673283, 0.01722756400704384, 0.015124198980629444, 0.017628205940127373, 0.01211939100176096, 0.019831731915473938, 0.019831731915473938, 0.020633013918995857, 0.02263621799647808, 0.012720352970063686, 0.013721955008804798, 0.017628205940127373, 0.009715544991195202, 0.012920673005282879, 0.015725160017609596, 0.012820512987673283, 0.014423076994717121, 0.013221153989434242, 0.012219551019370556, 0.018028846010565758, 0.012019230984151363, 0.01692708395421505, 0.011017628014087677, 0.018629807978868484, 0.01722756400704384, 0.014022435992956161, 0.018129006028175354, 0.011618589982390404, 0.015124198980629444, 0.023737981915473938, 0.010616987012326717, 0.012620192021131516, 0.012820512987673283, 0.010817307978868484, 0.01792868599295616, 0.01592548005282879, 0.01953125, 0.01522435899823904, 0.012620192021131516, 0.014723557978868484, 0.013120993971824646, 0.013822115957736969, 0.01171875, 0.011818910017609596, 0.011217948980629444, 0.013621794991195202, 0.02133413404226303, 0.012820512987673283, 0.007111378479748964, 0.009314903989434242, 0.014322916977107525, 0.01211939100176096, 0.025841346010565758, 0.015424679964780807, 0.015324519015848637, 0.010016025975346565, 0.012219551019370556, 0.01923076994717121, 0.012920673005282879, 0.015024038963019848, 0.016225961968302727, 0.014322916977107525, 0.012419871985912323, 0.021434295922517776, 0.01692708395421505, 0.015124198980629444, 0.016526442021131516, 0.022836538031697273, 0.009815705008804798, 0.016826923936605453, 0.017828525975346565, 0.018429487943649292, 0.010116185992956161, 0.00761217949911952, 0.022035256028175354, 0.02033253200352192, 0.016225961968302727, 0.015524839982390404, 0.017628205940127373, 0.012019230984151363, 0.018930288031697273, 0.021935096010565758, 0.015725160017609596, 0.017027243971824646, 0.014222756959497929, 0.010116185992956161, 0.014723557978868484, 0.015725160017609596, 0.01482371799647808, 0.012319711968302727, 0.018028846010565758, 0.016726763918995857, 0.014623397961258888, 0.012019230984151363, 0.010516826994717121, 0.018329327926039696, 0.016025641933083534, 0.016526442021131516, 0.011017628014087677, 0.016826923936605453, 0.017327724024653435, 0.014322916977107525, 0.018429487943649292, 0.016726763918995857, 0.013721955008804798, 0.01642628200352192, 0.012419871985912323, 0.013521634973585606, 0.01171875, 0.016225961968302727, 0.020532852038741112, 0.013521634973585606, 0.01482371799647808, 0.014222756959497929, 0.020232371985912323, 0.012019230984151363, 0.014923878014087677, 0.019631410017609596, 0.01903044804930687, 0.01822916604578495, 0.02313701994717121, 0.019631410017609596, 0.01903044804930687, 0.015825320035219193, 0.012419871985912323, 0.009715544991195202, 0.019631410017609596, 0.019831731915473938, 0.016826923936605453, 0.015124198980629444, 0.015725160017609596, 0.015825320035219193, 0.014322916977107525, 0.015324519015848637, 0.013621794991195202, 0.019731570035219193, 0.015124198980629444, 0.011017628014087677, 0.018629807978868484, 0.015324519015848637, 0.019130609929561615, 0.009014423005282879, 0.014322916977107525, 0.01522435899823904, 0.013221153989434242, 0.01772836595773697, 0.018529647961258888, 0.021734775975346565, 0.01722756400704384, 0.014923878014087677, 0.020232371985912323, 0.01131810899823904, 0.014322916977107525, 0.015524839982390404, 0.013621794991195202, 0.01482371799647808, 0.02083333395421505, 0.014222756959497929, 0.01822916604578495, 0.010116185992956161, 0.023737981915473938, 0.013321314007043839, 0.015825320035219193, 0.009014423005282879, 0.012419871985912323, 0.01131810899823904, 0.011418269015848637, 0.02003205195069313, 0.018329327926039696, 0.02113381400704384, 0.015124198980629444, 0.007712339982390404, 0.012319711968302727, 0.01923076994717121, 0.01722756400704384, 0.009314903989434242, 0.016025641933083534, 0.011618589982390404, 0.01822916604578495, 0.014222756959497929, 0.016526442021131516, 0.016626602038741112, 0.01722756400704384, 0.018429487943649292, 0.02033253200352192, 0.021033653989434242, 0.020132211968302727, 0.01592548005282879, 0.014423076994717121, 0.016726763918995857, 0.012219551019370556, 0.01482371799647808, 0.016326121985912323, 0.015424679964780807, 0.015424679964780807, 0.01171875, 0.020532852038741112, 0.016626602038741112, 0.016826923936605453, 0.018429487943649292, 0.01903044804930687, 0.014423076994717121, 0.020933493971824646, 0.01792868599295616, 0.016726763918995857, 0.011017628014087677, 0.013922275975346565, 0.02083333395421505, 0.009615384973585606, 0.011117788963019848, 0.007912660017609596, 0.018830128014087677, 0.016025641933083534, 0.00761217949911952, 0.016626602038741112, 0.013521634973585606, 0.013822115957736969, 0.016626602038741112, 0.014322916977107525, 0.013621794991195202, 0.009815705008804798, 0.012019230984151363, 0.021534455940127373, 0.017027243971824646, 0.01592548005282879, 0.01091746799647808, 0.021734775975346565, 0.015024038963019848, 0.010416666977107525, 0.011818910017609596, 0.011117788963019848]",[],[],[],[],[],[],[],[],[],"[1.8353936801552835, 1.2194466498763479, 0.5615184284456419, 0.5572470411013366, 0.4395099137785411, 0.38374496335204167, 0.34819940282396566, 0.4018883748790624, 0.387211607176018, 0.6789852177738344, 0.39553725698152004, 0.31822446903594837, 0.2890945189594177, 0.3665167892102021, 0.39403861396775064, 0.26322919564630815, 0.31964818690967983, 0.33726918415943485, 0.3815135628499465, 0.28370696549930424, 0.2558364174317124, 0.2771247318827728, 0.4716772261179208, 0.35458824350367085, 0.297654797440258, 0.3182253579273964, 0.3636122303648067, 0.2814466659161685, 0.2922913842855251, 0.3349664856385882, 0.31891794665837425, 0.30966241550335577, 0.33833618123546866, 0.27541312340767693, 0.291639498744032, 0.2866951450367994, 0.32603309094712324, 0.30395220406640394, 0.29182587517229014, 0.3371887503948573, 0.3082885455197789, 0.35607336433742764, 0.3214102970334091, 0.3068192642733727, 0.289256198711186, 0.3207924643437115, 0.3522300825771256, 0.2902332205528028, 0.33581225387807656, 0.2948512170606265, 0.3199313409781684, 0.2833281678763299, 0.33802175184141686, 0.37410661011351465, 0.31557215047349035, 0.26747650697684267, 0.283673032590575, 0.39110478009165717, 0.21878722430735434, 0.20593790419648372, 0.2088421724661814, 0.29534574626169857, 0.20894480602504686, 0.2877973514317992, 0.22700546899486415, 0.22949859636823688, 0.22405517111585002, 0.265965202783556, 0.22856509930031987, 0.2309265610594138, 0.20197595985961359, 0.2517683020446458, 0.21831090105008463, 0.23220372399266984, 0.22799783920126346, 0.19711968115732942, 0.19798415578615974, 0.2351535605032444, 0.2441620005548324, 0.2372058438852054, 0.22096565411115357, 0.202420591798324, 0.23208578908825644, 0.20519406897561174, 0.19007400772623007, 0.26178163218497014, 0.23977761306640835, 0.17425400741556304, 0.21323283745695926, 0.19357429856877667, 0.18547126488616428, 0.21276702746260656, 0.21153681769145605, 0.20127975507540338, 0.2098352797824611, 0.257302212735287, 0.17086509766813904, 0.21224694526108637, 0.18985869604343594, 0.17254370299189578, 0.21286987340393615, 0.19379918388135575, 0.18047866619876426, 0.19714123263925484, 0.17649270273770706, 0.19867733490667738, 0.18440344529686845, 0.18280639189487102, 0.26209934980336147, 0.19606769116005932, 0.1846971529740464, 0.18607902760486564, 0.17118221223996777, 0.18253985075193183, 0.19281665370942855, 0.21523978191056484, 0.19834529320220204, 0.15612071544810316, 0.16320917584982778, 0.19069509946225827, 0.20778498754051625, 0.18382926250672507, 0.1988199362715006, 0.16679294557651336, 0.17909913988061565, 0.16843267883280855, 0.17000964284544753, 0.20414939062169682, 0.18223000390281616, 0.1766067212800923, 0.19104333109578592, 0.17810711577421864, 0.18296393073964703, 0.22716734237386116, 0.153445449090683, 0.17652463087512962, 0.1660157252102788, 0.17598442084964588, 0.21092944024944787, 0.16515325033965267, 0.16704491980818295, 0.1784470096452274, 0.2298571582903558, 0.19939619230852132, 0.14400172671092992, 0.17895589876442136, 0.16354432615746925, 0.14567216629439106, 0.18318705839091184, 0.1748482888536959, 0.15125696212454912, 0.20406455808281088, 0.14986007168953625, 0.15833921892445876, 0.14811177812639503, 0.1710584121660867, 0.16113074921782505, 0.14862096960764068, 0.15658675947850512, 0.15754270164416218, 0.15973039888116095, 0.1567084954085905, 0.14685992984503177, 0.1768462890936747, 0.16375229824598442, 0.14699023243057338, 0.16116949778238232, 0.21360114503241967, 0.14514875213904987, 0.20154798345910124, 0.1749306749542846, 0.14342641877924023, 0.21272291130519821, 0.14229751955301762, 0.13861443665262646, 0.1731298706164852, 0.18743078099200344, 0.14515831581162175, 0.14053482611297652, 0.15372347610580891, 0.16382905126436234, 0.19643592915034333, 0.15776637194414775, 0.13788515157244496, 0.14998866272931294, 0.1292621317969188, 0.17049656107955571, 0.18777530299388623, 0.14393427099542655, 0.15477660603779841, 0.13011006618122528, 0.13809290710462144, 0.14687305169567172, 0.1671064861265478, 0.1238189304033273, 0.1643347319385784, 0.1543428843878789, 0.16620151126593138, 0.17679088306871912, 0.14809337012619458, 0.14452528963915998, 0.18096166019108467, 0.12433224887733761, 0.19078697835385214, 0.1586768700173008, 0.12378430920671948, 0.13984507108575817, 0.1503079865324565, 0.17824147268800278, 0.17701192367358332, 0.16163153421974896, 0.12131603713854126, 0.1747738664512808, 0.15247744840599536, 0.1720600550941304, 0.17737734794468799, 0.22539895429046547, 0.11806313693680542, 0.12095531611336843, 0.1389692748145169, 0.20286232471152407, 0.10085216318928307, 0.1291867167584953, 0.10469899701570101, 0.1771714747021758, 0.17219234357298233, 0.12959629036649514, 0.16023574468447144, 0.15582814960070918, 0.11282741755435569, 0.1147674732125569, 0.12333715515007744, 0.09050530133762158, 0.1421361927301459, 0.10761420199066002, 0.10376397765512566, 0.17961880579753217, 0.11746803917140784, 0.13259494718604095, 0.11318023829304068, 0.13096778797093656, 0.11870572278750455, 0.11544155331763195, 0.1336566243875656, 0.18606473469821752, 0.10382982616507815, 0.10271526818950298, 0.17652259635260606, 0.11613196450214402, 0.11320897570964036, 0.12470844890145698, 0.13182836406479762, 0.4174995479351083, 0.10154028412985212, 0.10908660588793584, 0.1501507440598559, 0.36279068916600654, 0.08892278975396808, 0.11522132791592223, 0.30214618336683435, 0.0998795782529906, 0.10157686599584355, 0.26035045806897517, 0.10897838364987675, 0.09995902204294821, 0.1199766972624929, 0.13174311451921422, 0.09966263683074789, 0.1564706577946496, 0.24030445566077124, 0.10582007082852234, 0.11454249820169288, 0.14397768474825, 0.07265516313992842, 0.1246065862935525, 0.20833588582452117, 0.09162814277265476, 0.08351622862950099, 0.24761467137215293, 0.07954204873436564, 0.10947545275680878, 0.16159295286568642, 0.11174840068121485, 0.06694970566024534, 0.17588387339796388, 0.11338059102103686, 0.33943833035892923, 0.09155969370776469, 0.10253190600307933, 0.19878114058994256, 0.08731614564438224, 0.2731075878470003, 0.12295443273446463, 0.0716752043068821, 0.08213100867239598, 0.14061141873371674, 0.2281559202839131, 0.06755290815057681, 0.06333117352205968, 0.3466128582074653, 0.11998150181678759, 0.06510811441095245, 0.22106320885056455, 0.37627888459533537, 0.08724709994105448, 0.08413683161761615, 0.1879498117272637, 0.07030705507044328, 0.11176311376512402, 0.14746457906199176, 0.05471647056141532, 0.057534591776846625, 0.19543937723442414, 0.07146607103412092, 0.08104939831286473, 0.18578016444309975, 0.06099115454540069, 0.0571570797569962, 0.2931372678400642, 0.09755248472701455, 0.05968037977167185, 0.08606940071288335, 0.2884484921246657, 0.07310451442993496, 0.05183718993330721, 0.1001333999345391, 0.158007205371374, 0.06994437066122024, 0.8520580207669494, 0.1036212254300246, 0.05267967205950423, 0.2929841297801648, 0.11276828559782269, 0.06710873716759577, 0.6997824866201936, 0.08704732405631958, 0.05261827864219999, 0.34876913189110775, 0.07972737364766512, 0.10630157427291695, 0.12861010551876623, 0.02213646899963921]","[0.0, 59.70612890625, 61.779700927734375, 63.828490234374996, 65.86442932128907, 67.90443273925781, 69.9405438232422, 71.97593322753907, 74.0495750732422, 76.08776794433595, 78.1276199951172, 80.16549548339844, 82.20423583984376, 84.33445312500001, 86.37906457519533, 88.41790966796877, 90.45552661132815, 92.50187927246097, 94.63795690917972, 96.6888677978516, 98.7547896728516, 100.80822595214848, 102.85256591796879, 104.89997338867191, 106.97394384765629, 109.03986474609378, 111.08658569335941, 113.14747045898442, 115.20705053710941, 117.24744921875003, 119.3139685058594, 121.39769433593753, 123.44482080078129, 125.51106787109379, 127.56446069335941, 129.61116235351565, 131.66738793945316, 133.72424121093755, 135.78182031250006, 137.83499121093757, 139.88686206054695, 141.95115600585945, 144.0019553222657, 146.05826562500008, 148.1250031738282, 150.1746430664063, 152.2622397460938, 154.3117084960938, 156.37155883789066, 158.4526354980469, 160.52339526367192, 162.57780053710943, 164.64189257812504, 166.69779296875004, 168.7607221679688, 170.82121801757816, 172.8875317382813, 175.12970727539067, 177.36823657226566, 180.6264020996094, 183.7123376464844, 186.97340429687503, 189.8850268554688, 193.32387207031255, 196.40557714843754, 199.67012036132817, 202.59659497070317, 206.37535009765628, 209.79612133789067, 213.91584887695316, 217.9118024902344, 221.86378833007817, 225.81580908203128, 229.94852246093754, 233.74511718750003, 237.86028320312502, 242.31472607421878, 246.2727868652344, 250.23869335937502, 254.72276318359377, 258.8543173828125, 264.0521127929687, 269.04647021484374, 273.73009375, 279.2258896484375, 284.73353515625, 289.54039599609376, 294.8599404296875, 300.70359375000004, 305.8591440429688, 311.3517973632813, 316.8821264648438, 321.9379750976563, 327.6214086914063, 333.6851191406251, 339.5374931640626, 345.2448056640626, 351.62049072265637, 357.98033886718764, 363.98737207031263, 370.69427978515637, 376.74255761718763, 383.4458374023439, 390.3330639648439, 397.3796171875002, 404.6015834960939, 411.82234179687515, 419.0485410156252, 426.0936679687502, 432.97692822265645, 441.06177099609397, 448.792349121094, 456.70086035156277, 464.26378027343776, 471.4840146484378, 478.5385361328128, 485.759323730469, 494.1809985351565, 503.120009277344, 512.0687241210941, 520.4839135742191, 529.079036621094, 537.6806918945315, 546.452790527344, 555.608093261719, 563.6777021484377, 571.7578671875002, 579.6664174804689, 587.6155400390627, 596.0539707031252, 604.1278334960939, 612.0266147460939, 620.8048696289063, 629.9377758789063, 639.2405727539063, 649.8968051757813, 659.5363774414063, 669.0041293945313, 679.3319155273439, 689.6513081054688, 701.1670063476563, 711.4809575195313, 721.6353618164063, 731.5911489257813, 743.4772856445313, 756.3601508789063, 767.7234272460938, 779.5820649414063, 792.3129575195313, 803.8248530273438, 816.1999282226564, 828.4058969726564, 839.7411127929689, 852.6401440429689, 864.852372558594, 876.8745122070314, 889.4399536132814, 903.1892377929689, 916.5951791992189, 928.9798637695314, 941.5337583007814, 954.1128774414065, 967.0048598632815, 980.5776293945314, 995.5242309570314, 1011.8654526367188, 1027.1868461914064, 1041.1117836914063, 1054.8509624023438, 1070.3265043945314, 1085.1041020507814, 1101.8243481445313, 1118.3301489257813, 1132.7885581054688, 1149.4605327148438, 1164.3191665039062, 1178.0767543945312, 1192.3407231445312, 1208.0019086914062, 1222.6084360351563, 1237.2117202148438, 1252.5181840820312, 1268.6987299804687, 1286.6897026367187, 1305.0872592773437, 1322.2965131835938, 1339.1526499023437, 1355.1684682617188, 1372.3669506835938, 1393.7771831054688, 1416.4778588867189, 1437.623630371094, 1457.395231933594, 1477.928729980469, 1498.734370605469, 1521.078856933594, 1539.802257324219, 1559.727206542969, 1580.685335449219, 1601.3020268554692, 1623.6606362304692, 1645.4942612304692, 1665.7822260742191, 1686.790438964844, 1706.0534135742191, 1727.542790527344, 1748.185118652344, 1768.299544433594, 1789.287575683594, 1810.165013183594, 1832.001864746094, 1856.071905761719, 1880.993716308594, 1902.152478027344, 1924.484108886719, 1947.5543374023441, 1972.8195620117192, 1998.7708862304692, 2029.3992749023441, 2056.563167480469, 2082.176360839844, 2107.117532714844, 2142.531767089844, 2175.042958496094, 2207.353796386719, 2238.948603027344, 2274.7036928710936, 2310.9871186523437, 2343.967790527344, 2382.3043569335937, 2428.4117670898436, 2469.1426694335937, 2520.3642241210937, 2580.8754741210937, 2623.146817871094, 2671.099599121094, 2718.015384277344, 2757.551970214844, 2801.184505371094, 2849.356427246094, 2902.343462402344, 2945.5128256835937, 2999.6570366210935, 3059.8259467773437, 3110.0299897460936, 3163.3717475585936, 3227.4907436523436, 3277.5236225585936, 3317.5881069335937, 3369.696095214844, 3422.819759277344, 3476.286560058594, 3531.809880371094, 3582.037606933594, 3677.6261928710937, 3754.311810058594, 3813.470020996094, 3874.3191772460937, 3980.9036850585935, 4057.4149194335937, 4122.747888183594, 4225.563231933594, 4304.840317871093, 4371.167942871093, 4468.446458496093, 4547.844427246093, 4611.808626464843, 4699.283884277343, 4806.225009277343, 4889.418376464843, 4980.022048339843, 5109.245540527343, 5211.849181152343, 5377.087946777343, 5606.169618652343, 5746.327181152343, 5870.4694467773425, 6050.769634277342, 6200.717993652343, 6327.110517089843, 6525.709392089842, 6667.910985839842, 6789.975618652343, 6995.738931152343, 7223.347978027343, 7370.713431152343, 7531.654056152343, 7670.017915527344, 7920.849931152344, 8125.071212402344, 8309.885243652345, 8556.674196777345, 8739.467603027346, 9133.320415527345, 9594.233290527345, 9876.348134277345, 10054.950978027346, 10330.698478027345, 10837.785040527346, 11152.946103027345, 11336.288399902345, 11782.120837402344, 12276.891368652345, 12567.811149902345, 12952.171212402345, 13844.088274902346, 14543.268337402345, 15201.837587402346, 16152.827462402345, 16742.185962402345, 17509.550899902344, 18559.853649902343, 19134.755399902344, 19527.046556152345, 20060.723056152347, 20410.645774902347, 20938.873462402345, 21900.075087402347, 22482.599899902347, 22799.553431152348, 23388.87024365235, 23947.88243115235, 24266.18114990235, 24643.62655615235, 25514.54974365235, 26117.99211865235, 26435.93214990235, 26763.54196240235, 27192.79664990235, 27474.33352490235, 28644.98039990235, 29745.53414990235, 30341.78064990235, 31345.45208740235, 32324.76839990235, 32922.55596240235, 34886.58871240235, 36465.39508740235, 37326.54327490235, 38866.161899902356, 40037.38527490236, 41503.63864990236]","[39936, 439296, 838656, 1238016, 1637376, 2036736, 2436096, 2835456, 3234816, 3634176, 4033536, 4432896, 4832256, 5231616, 5630976, 6030336, 6429696, 6829056, 7228416, 7627776, 8027136, 8426496, 8825856, 9225216, 9624576, 10023936, 10423296, 10822656, 11222016, 11621376, 12020736, 12420096, 12819456, 13218816, 13618176, 14017536, 14416896, 14816256, 15215616, 15614976, 16014336, 16413696, 16813056, 17212416, 17611776, 18011136, 18410496, 18809856, 19209216, 19608576, 20007936, 20407296, 20806656, 21206016, 21605376, 22004736, 22444032, 22883328, 23562240, 24201216, 24880128, 25479168, 26198016, 26836992, 27515904, 28114944, 28913664, 29632512, 30511104, 31349760, 32188416, 33027072, 33905664, 34704384, 35582976, 36541440, 37380096, 38218752, 39177216, 40055808, 41174016, 42252288, 43250688, 44448768, 45646848, 46685184, 47843328, 49121280, 50239488, 51437568, 52635648, 53713920, 54951936, 56269824, 57547776, 58785792, 60183552, 61581312, 62899200, 64376832, 65694720, 67172352, 68689920, 70247424, 71844864, 73442304, 75039744, 76597248, 78114816, 79911936, 81629184, 83386368, 85063680, 86661120, 88218624, 89816064, 91693056, 93689856, 95686656, 97563648, 99480576, 101397504, 103354368, 105391104, 107188224, 108985344, 110742528, 112499712, 114376704, 116173824, 117931008, 119887872, 121924608, 124001280, 126397440, 128553984, 130670592, 132986880, 135303168, 137899008, 140215296, 142491648, 144728064, 147403776, 150319104, 152875008, 155550720, 158426112, 161021952, 163817472, 166573056, 169128960, 172044288, 174799872, 177515520, 180350976, 183465984, 186501120, 189296640, 192132096, 194967552, 197882880, 200957952, 204352512, 208066560, 211540992, 214695936, 217810944, 221325312, 224679936, 228473856, 232227840, 235502592, 239296512, 242651136, 245766144, 249000960, 252555264, 255869952, 259184640, 262659072, 266333184, 270406656, 274599936, 278513664, 282347520, 285981696, 289895424, 294767616, 299959296, 304791552, 309304320, 313976832, 318729216, 323841024, 328114176, 332666880, 337459200, 342171648, 347283456, 352275456, 356908032, 361700352, 366093312, 371005440, 375717888, 380310528, 385102848, 389855232, 394847232, 400358400, 406069248, 410901504, 416013312, 421284864, 427075584, 433026048, 440054784, 446284800, 452155392, 457866240, 466013184, 473481216, 480909312, 488177664, 496404480, 504751104, 512338944, 521164800, 531787776, 541172736, 552993792, 566971392, 576715776, 587778048, 598600704, 607706112, 617769984, 628872192, 641092608, 651036672, 663536640, 677434368, 689015808, 701316096, 716132352, 727673856, 736899072, 748919808, 761180160, 773520384, 786339840, 797921280, 820045824, 837777408, 851435520, 865492992, 890173440, 907865088, 922960896, 946762752, 965093376, 980428800, 1002952704, 1021323264, 1036099584, 1056347136, 1081107456, 1100356608, 1121323008, 1151275008, 1175036928, 1213335552, 1266490368, 1298958336, 1327712256, 1369525248, 1404269568, 1433542656, 1479588864, 1512536064, 1540810752, 1588534272, 1641329664, 1675474944, 1712775168, 1744843776, 1803030528, 1850394624, 1893245952, 1950514176, 1992886272, 2084299776, 2191328256, 2256783360, 2298196992, 2362214400, 2479945728, 2553108480, 2595600384, 2699074560, 2813970432, 2881462272, 2970679296, 3177787392, 3340127232, 3493002240, 3713888256, 3850629120, 4028863488, 4272712704, 4406178816, 4497232896, 4621114368, 4702304256, 4824907776, 5048110080, 5183373312, 5256935424, 5393836032, 5523588096, 5597469696, 5685089280, 5887285248, 6027420672, 6101182464, 6177220608, 6276860928, 6342196224, 6614000640, 6869551104, 7007969280, 7241035776, 7468511232, 7607328768, 8063477760, 8430210048, 8630129664, 8987676672, 9259760640, 9600254976, 10000014336]","[3.9936e-06, 4.39296e-05, 8.38656e-05, 0.0001238016, 0.0001637376, 0.0002036736, 0.0002436096, 0.0002835456, 0.0003234816, 0.0003634176, 0.0004033536, 0.0004432896, 0.0004832256, 0.0005231616, 0.0005630976, 0.0006030336, 0.0006429696, 0.0006829056, 0.0007228416, 0.0007627776, 0.0008027136, 0.0008426496, 0.0008825856, 0.0009225216, 0.0009624576, 0.0010023936, 0.0010423296, 0.0010822656, 0.0011222016, 0.0011621376, 0.0012020736, 0.0012420096, 0.0012819456, 0.0013218816, 0.0013618176, 0.0014017536, 0.0014416896, 0.0014816256, 0.0015215616, 0.0015614976, 0.0016014336, 0.0016413696, 0.0016813056, 0.0017212416, 0.0017611776, 0.0018011136, 0.0018410496, 0.0018809856, 0.0019209216, 0.0019608576, 0.0020007936, 0.0020407296, 0.0020806656, 0.0021206016, 0.0021605376, 0.0022004736, 0.0022444032, 0.0022883328, 0.002356224, 0.0024201216, 0.0024880128, 0.0025479168, 0.0026198016, 0.0026836992, 0.0027515904, 0.0028114944, 0.0028913664, 0.0029632512, 0.0030511104, 0.003134976, 0.0032188416, 0.0033027072, 0.0033905664, 0.0034704384, 0.0035582976, 0.003654144, 0.0037380096, 0.0038218752, 0.0039177216, 0.0040055808, 0.0041174016, 0.0042252288, 0.0043250688, 0.0044448768, 0.0045646848, 0.0046685184, 0.0047843328, 0.004912128, 0.0050239488, 0.0051437568, 0.0052635648, 0.005371392, 0.0054951936, 0.0056269824, 0.0057547776, 0.0058785792, 0.0060183552, 0.0061581312, 0.00628992, 0.0064376832, 0.006569472, 0.0067172352, 0.006868992, 0.0070247424, 0.0071844864, 0.0073442304, 0.0075039744, 0.0076597248, 0.0078114816, 0.0079911936, 0.0081629184, 0.0083386368, 0.008506368, 0.008666112, 0.0088218624, 0.0089816064, 0.0091693056, 0.0093689856, 0.0095686656, 0.0097563648, 0.0099480576, 0.0101397504, 0.0103354368, 0.0105391104, 0.0107188224, 0.0108985344, 0.0110742528, 0.0112499712, 0.0114376704, 0.0116173824, 0.0117931008, 0.0119887872, 0.0121924608, 0.012400128, 0.012639744, 0.0128553984, 0.0130670592, 0.013298688, 0.0135303168, 0.0137899008, 0.0140215296, 0.0142491648, 0.0144728064, 0.0147403776, 0.0150319104, 0.0152875008, 0.015555072, 0.0158426112, 0.0161021952, 0.0163817472, 0.0166573056, 0.016912896, 0.0172044288, 0.0174799872, 0.017751552, 0.0180350976, 0.0183465984, 0.018650112, 0.018929664, 0.0192132096, 0.0194967552, 0.019788288, 0.0200957952, 0.0204352512, 0.020806656, 0.0211540992, 0.0214695936, 0.0217810944, 0.0221325312, 0.0224679936, 0.0228473856, 0.023222784, 0.0235502592, 0.0239296512, 0.0242651136, 0.0245766144, 0.024900096, 0.0252555264, 0.0255869952, 0.025918464, 0.0262659072, 0.0266333184, 0.0270406656, 0.0274599936, 0.0278513664, 0.028234752, 0.0285981696, 0.0289895424, 0.0294767616, 0.0299959296, 0.0304791552, 0.030930432, 0.0313976832, 0.0318729216, 0.0323841024, 0.0328114176, 0.033266688, 0.03374592, 0.0342171648, 0.0347283456, 0.0352275456, 0.0356908032, 0.0361700352, 0.0366093312, 0.037100544, 0.0375717888, 0.0380310528, 0.0385102848, 0.0389855232, 0.0394847232, 0.04003584, 0.0406069248, 0.0410901504, 0.0416013312, 0.0421284864, 0.0427075584, 0.0433026048, 0.0440054784, 0.04462848, 0.0452155392, 0.045786624, 0.0466013184, 0.0473481216, 0.0480909312, 0.0488177664, 0.049640448, 0.0504751104, 0.0512338944, 0.05211648, 0.0531787776, 0.0541172736, 0.0552993792, 0.0566971392, 0.0576715776, 0.0587778048, 0.0598600704, 0.0607706112, 0.0617769984, 0.0628872192, 0.0641092608, 0.0651036672, 0.066353664, 0.0677434368, 0.0689015808, 0.0701316096, 0.0716132352, 0.0727673856, 0.0736899072, 0.0748919808, 0.076118016, 0.0773520384, 0.078633984, 0.079792128, 0.0820045824, 0.0837777408, 0.085143552, 0.0865492992, 0.089017344, 0.0907865088, 0.0922960896, 0.0946762752, 0.0965093376, 0.09804288, 0.1002952704, 0.1021323264, 0.1036099584, 0.1056347136, 0.1081107456, 0.1100356608, 0.1121323008, 0.1151275008, 0.1175036928, 0.1213335552, 0.1266490368, 0.1298958336, 0.1327712256, 0.1369525248, 0.1404269568, 0.1433542656, 0.1479588864, 0.1512536064, 0.1540810752, 0.1588534272, 0.1641329664, 0.1675474944, 0.1712775168, 0.1744843776, 0.1803030528, 0.1850394624, 0.1893245952, 0.1950514176, 0.1992886272, 0.2084299776, 0.2191328256, 0.225678336, 0.2298196992, 0.23622144, 0.2479945728, 0.255310848, 0.2595600384, 0.269907456, 0.2813970432, 0.2881462272, 0.2970679296, 0.3177787392, 0.3340127232, 0.349300224, 0.3713888256, 0.385062912, 0.4028863488, 0.4272712704, 0.4406178816, 0.4497232896, 0.4621114368, 0.4702304256, 0.4824907776, 0.504811008, 0.5183373312, 0.5256935424, 0.5393836032, 0.5523588096, 0.5597469696, 0.568508928, 0.5887285248, 0.6027420672, 0.6101182464, 0.6177220608, 0.6276860928, 0.6342196224, 0.661400064, 0.6869551104, 0.700796928, 0.7241035776, 0.7468511232, 0.7607328768, 0.806347776, 0.8430210048, 0.8630129664, 0.8987676672, 0.925976064, 0.9600254976, 1.0000014336]","[39, 39, 39, 39, 39, 39, 39, 39, 39, 39, 39, 39, 39, 39, 39, 39, 39, 39, 39, 39, 39, 39, 39, 39, 39, 39, 39, 39, 39, 39, 39, 39, 39, 39, 39, 39, 39, 39, 39, 39, 39, 39, 39, 39, 39, 39, 39, 39, 39, 39, 39, 39, 39, 39, 39, 39, 39, 39, 39, 39, 39, 39, 39, 39, 39, 39, 39, 39, 39, 39, 39, 39, 39, 39, 39, 39, 39, 39, 39, 39, 39, 39, 39, 39, 39, 39, 39, 39, 39, 39, 39, 39, 39, 39, 39, 39, 39, 39, 39, 39, 39, 39, 39, 39, 39, 39, 39, 39, 39, 39, 39, 39, 39, 39, 39, 39, 39, 39, 39, 39, 39, 39, 39, 39, 39, 39, 39, 39, 39, 39, 39, 39, 39, 39, 39, 39, 39, 39, 39, 39, 39, 39, 39, 39, 39, 39, 39, 39, 39, 39, 39, 39, 39, 39, 39, 39, 39, 39, 39, 39, 39, 39, 39, 39, 39, 39, 39, 39, 39, 39, 39, 39, 39, 39, 39, 39, 39, 39, 39, 39, 39, 39, 39, 39, 39, 39, 39, 39, 39, 39, 39, 39, 39, 39, 39, 39, 39, 39, 39, 39, 39, 39, 39, 39, 39, 39, 39, 39, 39, 39, 39, 39, 39, 39, 39, 39, 39, 39, 39, 39, 39, 39, 39, 39, 39, 39, 39, 39, 39, 39, 39, 39, 39, 39, 39, 39, 39, 39, 39, 39, 39, 39, 39, 39, 39, 39, 39, 39, 39, 39, 39, 39, 39, 39, 39, 39, 39, 39, 39, 39, 39, 39, 39, 39, 39, 39, 39, 39, 39, 39, 39, 39, 39, 39, 39, 39, 39, 39, 39, 39, 39, 39, 39, 39, 39, 39, 39, 39, 39, 39, 39, 39, 39, 39, 39, 39, 39, 39, 39, 39, 39, 39, 39, 39, 39, 39, 39, 39, 39, 39, 39, 39, 39, 39, 39, 39, 39, 39, 39, 39, 39, 39, 39, 39, 39, 39, 39, 39, 39, 39, 39, 39, 39, 39, 39, 39, 39, 39, 39, 39, 39, 39]","[1024, 1024, 1024, 1024, 1024, 1024, 1024, 1024, 1024, 1024, 1024, 1024, 1024, 1024, 1024, 1024, 1024, 1024, 1024, 1024, 1024, 1024, 1024, 1024, 1024, 1024, 1024, 1024, 1024, 1024, 1024, 1024, 1024, 1024, 1024, 1024, 1024, 1024, 1024, 1024, 1024, 1024, 1024, 1024, 1024, 1024, 1024, 1024, 1024, 1024, 1024, 1024, 1024, 1024, 1024, 1024, 1024, 1024, 1024, 1024, 1024, 1024, 1024, 1024, 1024, 1024, 1024, 1024, 1024, 1024, 1024, 1024, 1024, 1024, 1024, 1024, 1024, 1024, 1024, 1024, 1024, 1024, 1024, 1024, 1024, 1024, 1024, 1024, 1024, 1024, 1024, 1024, 1024, 1024, 1024, 1024, 1024, 1024, 1024, 1024, 1024, 1024, 1024, 1024, 1024, 1024, 1024, 1024, 1024, 1024, 1024, 1024, 1024, 1024, 1024, 1024, 1024, 1024, 1024, 1024, 1024, 1024, 1024, 1024, 1024, 1024, 1024, 1024, 1024, 1024, 1024, 1024, 1024, 1024, 1024, 1024, 1024, 1024, 1024, 1024, 1024, 1024, 1024, 1024, 1024, 1024, 1024, 1024, 1024, 1024, 1024, 1024, 1024, 1024, 1024, 1024, 1024, 1024, 1024, 1024, 1024, 1024, 1024, 1024, 1024, 1024, 1024, 1024, 1024, 1024, 1024, 1024, 1024, 1024, 1024, 1024, 1024, 1024, 1024, 1024, 1024, 1024, 1024, 1024, 1024, 1024, 1024, 1024, 1024, 1024, 1024, 1024, 1024, 1024, 1024, 1024, 1024, 1024, 1024, 1024, 1024, 1024, 1024, 1024, 1024, 1024, 1024, 1024, 1024, 1024, 1024, 1024, 1024, 1024, 1024, 1024, 1024, 1024, 1024, 1024, 1024, 1024, 1024, 1024, 1024, 1024, 1024, 1024, 1024, 1024, 1024, 1024, 1024, 1024, 1024, 1024, 1024, 1024, 1024, 1024, 1024, 1024, 1024, 1024, 1024, 1024, 1024, 1024, 1024, 1024, 1024, 1024, 1024, 1024, 1024, 1024, 1024, 1024, 1024, 1024, 1024, 1024, 1024, 1024, 1024, 1024, 1024, 1024, 1024, 1024, 1024, 1024, 1024, 1024, 1024, 1024, 1024, 1024, 1024, 1024, 1024, 1024, 1024, 1024, 1024, 1024, 1024, 1024, 1024, 1024, 1024, 1024, 1024, 1024, 1024, 1024, 1024, 1024, 1024, 1024, 1024, 1024, 1024, 1024, 1024, 1024, 1024, 1024, 1024, 1024, 1024, 1024, 1024, 1024, 1024, 1024, 1024, 1024, 1024, 1024, 1024, 1024, 1024, 1024, 1024, 1024, 1024, 1024, 1024, 1024, 1024, 1024, 1024, 1024, 1024, 1024, 1024, 1024, 1024, 1024, 1024, 1024]","[5.051487918244324e-05, 0.0002980377871764151, 0.0005455606951703869, 0.0007930836031643588, 0.0010406065111583308, 0.0012881294191523025, 0.0015356523271462745, 0.0017831752351402462, 0.002030698143134218, 0.00227822105112819, 0.002525743959122162, 0.002084864853703878, 0.0019797565083994858, 0.0019190239170720866, 0.001876577973342039, 0.0018440967772343044, 0.0018178704752361996, 0.0017959268981150428, 0.0017770944945941164, 0.0017606215429044787, 0.0017459974819933847, 0.0017328600308405746, 0.0017209430284930395, 0.0017100453160035349, 0.0017000112443709271, 0.0016907179642908427, 0.0016820668538598375, 0.0016739775685819165, 0.001666383807903993, 0.001659230237319848, 0.0016524702077062364, 0.0016460640366920813, 0.0016399776939358295, 0.0016341817817068602, 0.0016286507347358853, 0.001623362185173344, 0.0016182964534668604, 0.0016134361363944851, 0.0016087657708650858, 0.0016042715573892626, 0.0015999411309722037, 0.001595763370012311, 0.0015917282358979378, 0.0015878266375807335, 0.0015840503166090038, 0.001580391749028161, 0.0015768440612694823, 0.0015734009577049383, 0.0015700566579828854, 0.0015668058426049915, 0.0015636436054798802, 0.001560565412409355, 0.0015575670646406814, 0.0015546446667623226, 0.001551794598337809, 0.001549013488768455, 0.0015462981949546683, 0.0015436457813909244, 0.0015410535023837417, 0.0015385187861272065, 0.0015360392204084876, 0.0015336125397475892, 0.0015312366138024408, 0.0015289094368931507, 0.0015266291185185342, 0.001524393874754488, 0.001522202020437827, 0.0015200519620512543, 0.001517942191235493, 0.0015158712788635432, 0.0015138378696197524, 0.0015118406770330696, 0.0015098784789196857, 0.0015079501131953113, 0.0015060544740217751, 0.0015041905082564956, 0.0015023572121767627, 0.0015005536284537575, 0.0014987788433538582, 0.001497031984147097, 0.0014953122167046771, 0.0014936187432692833, 0.001491950800383511, 0.0014903076569631828, 0.0014886886125035895, 0.0014870929954078217, 0.001485520161427383, 0.0014839694922061735, 0.0014824403939197467, 0.001480932296002478, 0.0014794446499559267, 0.0014779769282322716, 0.0014765286231872335, 0.0014750992460973616, 0.0014736883262370156, 0.0014722954100107476, 0.001470920060137152, 0.0014695618548805746, 0.0014682203873273578, 0.0014668952647035635, 0.0014655861077313675, 0.0014642925500215275, 0.0014630142374995273, 0.0014617508278631955, 0.0014605019900697464, 0.001459267403850359, 0.0014580467592505393, 0.0014568397561946468, 0.0014556461040730762, 0.0014544655213507042, 0.0014532977351952975, 0.0014521424811246777, 0.0014509995026715252, 0.0014498685510647706, 0.0014487493849266056, 0.0014476417699842026, 0.0014465454787952986, 0.0014454602904868516, 0.0014443859905060312, 0.001443322370382854, 0.0014422692275038174, 0.0014412263648959259, 0.0014401935910205463, 0.0014391707195765622, 0.0014381575693123239, 0.0014371539638459354, 0.001436159731493436, 0.0014351747051044622, 0.0014341987219050104, 0.0014332316233469302, 0.001432273254963809, 0.0014313234662329246, 0.0014303821104429668, 0.0014294490445672316, 0.0014285241291420324, 0.0014276072281500637, 0.0014266982089084811, 0.001425796941961471, 0.0014249033009770976, 0.0014240171626482205, 0.0014231384065972984, 0.0014222669152848917, 0.0014214025739216999, 0.0014205452703839616, 0.0014196948951320787, 0.001418851341132303, 0.0014180145037813623, 0.001417184280833884, 0.001416360572332502, 0.0014155432805405188, 0.0014147323098770241, 0.0014139275668543514, 0.0014131289600177808, 0.0014123363998873885, 0.0014115497989019535, 0.0014107690713648325, 0.0014099941333917253, 0.0014092249028602485, 0.0014084612993612439, 0.0014077032441517513, 0.0014069506601095798, 0.0014062034716894076, 0.0014054616048803546, 0.0014047249871649676, 0.0014039935474795602, 0.0014032672161758558, 0.0014025459249838842, 0.0014018296069760793, 0.001401118196532534, 0.0014004116293073715, 0.0013997098421961803, 0.001399012773304484, 0.0013983203619172013, 0.0013976325484690573, 0.0013969492745159174, 0.001396270482707001, 0.0013955961167579527, 0.0013949261214247295, 0.0013942604424782826, 0.0013935990266799995, 0.0013929418217578848, 0.001392288776383446, 0.001391639840149267, 0.0013909949635472396, 0.001390354097947431, 0.0013897171955775695, 0.0013890842095031196, 0.0013884550936079328, 0.0013878298025754511, 0.0013872082918704432, 0.00138659051772126, 0.0013859764371025882, 0.0013853660077186843, 0.0013847591879870783, 0.0013841559370227248, 0.0013835562146225935, 0.0013829599812506782, 0.0013823671980234158, 0.001381777826695501, 0.001381191829646078, 0.0013806091698653098, 0.0013800298109412992, 0.0013794537170473578, 0.0013788808529296135, 0.0013783111838949398, 0.0013777446757992013, 0.0013771812950358058, 0.00137662100852455, 0.0013760637837007521, 0.0013755095885046656, 0.001374958391371157, 0.0013744101612196493, 0.0013738648674443178, 0.0013733224799045297, 0.0013727829689155248, 0.001372246305239327, 0.0013717124600758782, 0.001371181405054393, 0.0013706531122249235, 0.001370127554050129, 0.0013696047033972464, 0.001369084533530254, 0.0013685670181022215, 0.0013680521311478465, 0.0013675398470761647, 0.001367030140663434, 0.001366522987046188, 0.0013660183617144493, 0.0013655162405051041, 0.0013650165995954277, 0.0013645194154967627, 0.0013640246650483416, 0.0013635323254112502, 0.0013630423740625293, 0.0013625547887894114, 0.0013620695476836862, 0.0013615866291361931, 0.0013611060118314392, 0.001360627674742334, 0.001360151597125044, 0.00135967775851396, 0.0013592061387167754, 0.0013587367178096714, 0.001358269476132609, 0.0013578043942847231, 0.0013573414531198155, 0.0013568806337419443, 0.0013564219175011107, 0.001355965285989036, 0.0013555107210350282, 0.0013550582047019378, 0.001354607719282198, 0.0013541592472939472, 0.0013537127714772351, 0.0013532682747903059, 0.0013528257404059594, 0.001352385151707987, 0.0013519464922876828, 0.001351509745940422, 0.0013510748966623148, 0.0013506419286469248, 0.0013502108262820544, 0.001349781574146595, 0.0013493541570074434, 0.0013489285598164737, 0.0013485047677075771, 0.0013480827659937545, 0.0013476625401642713, 0.0013472440758818631, 0.0013468273589800016, 0.0013464123754602108, 0.0013459991114894365, 0.0013455875533974664, 0.0013451776876744006, 0.0013447695009681704, 0.0013443629800821055, 0.0013439581119725473, 0.0013435548837465062, 0.0013431532826593663, 0.001342753296112632, 0.001342354911651715, 0.0013419581169637673, 0.001341562899875551, 0.0013411692483513483, 0.0013407771504909134, 0.0013403865945274577, 0.001339997568825675, 0.0013396100618798027, 0.0013392240623117185, 0.00133883955886907, 0.001338456540423441, 0.001338074995968549, 0.0013376949146184766, 0.0013373162856059324, 0.0013369390982805468, 0.0013365633421071944, 0.0013361890066643485, 0.0013358160816424646, 0.0013354445568423898, 0.0013350744221738064, 0.0013347056676536945, 0.001334338283404829, 0.0013339722596542969, 0.0013336075867320454, 0.0013332442550694514, 0.001332882255197917, 0.0013325215777474884, 0.0013321622134455015, 0.0013318041531152458, 0.0013314473876746542, 0.0013310919081350155, 0.0013307377055997054, 0.0013303847712629424, 0.001330033096408563, 0.0013296826724088168, 0.0013293334907231828, 0.0013289855428972055, 0.0013286388205613483, 0.001328293315429869, 0.0013279490192997106, 0.0013276059240494135, 0.0013272640216380413, 0.001326923304104129, 0.0013265837635646452, 0.0013262453922139703, 0.0013259081823228953, 0.0013255721262376314, 0.0013252372163788404, 0.001324903445240677, 0.0013245708053898479, 0.0013242392894646873, 0.001323908890174243, 0.001323579600297381, 0.0013232514126819024, 0.0013229243202436743, 0.0013225983159657732, 0.0013222733928976453, 0.0013219495441542755, 0.0013216267629153717, 0.0013213050424245617, 0.0013209843759886019, 0.0013206647569765982]","[16.0, 5.461416880546085e-06, 8.953057525735152e-06, 1.2193760314257286e-05, 1.4677004303525711e-05, 4.4630939237174416e-05, 2.1263607960451062e-05, 5.7143791138833276e-05, 2.559391504350992e-05, 3.080608373107477e-05, 2.8960311953852124e-05, 3.944296142142752e-05, 8.27882275580011e-05, 5.05012977070793e-05, 4.4630939237174416e-05, 3.707970403248798e-05, 5.05012977070793e-05, 0.00012758551632946206, 6.465997932684514e-05, 0.0001737671405796618, 0.00016335573980926502, 7.782790299202248e-05, 6.465997932684514e-05, 6.078582362438232e-05, 7.782790299202248e-05, 7.316478034140814e-05, 8.806469606277212e-05, 0.00023666494453226047, 9.964794623110138e-05, 6.078582362438232e-05, 9.367745779066276e-05, 0.0003223296175768086, 0.0002091546007442082, 7.782790299202248e-05, 9.964794623110138e-05, 0.00012758551632946206, 9.367745779066276e-05, 9.964794623110138e-05, 0.00011994112545916939, 8.806469606277212e-05, 9.964794623110138e-05, 0.00011275475453862487, 0.00023666494453226047, 0.0003223296175768086, 9.367745779066276e-05, 0.00010599896092682196, 0.00011275475453862487, 0.0001443669851764812, 0.00011994112545916939, 0.0003428731432140421, 0.0001357171188342471, 0.00041269882864860955, 0.00016335573980926502, 0.00012758551632946206, 0.00011994112545916939, 0.0001443669851764812, 0.0005620817898299683, 0.00010599896092682196, 0.0003879716397899993, 0.0001535681466565814, 0.00043900199318724724, 0.00016335573980926502, 0.0001848421070510764, 0.0006360130503435115, 0.0005284041983121468, 0.0005979058067056204, 0.0002091546007442082, 0.0005979058067056204, 0.0002224849702424753, 0.0008143274045223257, 0.00019662293126943784, 0.0005979058067056204, 0.0007655363100811292, 0.0005979058067056204, 0.0007655363100811292, 0.00023666494453226047, 0.0006360130503435115, 0.0008143274045223257, 0.0007196685740870995, 0.0008143274045223257, 0.0005979058067056204, 0.0008662281762778711, 0.0006765490411208203, 0.00016335573980926502, 0.00025174867277288475, 0.0008143274045223257, 0.0002224849702424753, 0.0008662281762778711, 0.0009801641587688596, 0.0009801641587688596, 0.0007655363100811292, 0.0008662281762778711, 0.0010426344575758478, 0.0008662281762778711, 0.001179773359952946, 0.001179773359952946, 0.0010426344575758478, 0.001179773359952946, 0.00030301697413014723, 0.0010426344575758478, 0.0003647260007357621, 0.00030301697413014723, 0.00041269882864860955, 0.0009214368191597745, 0.0011090862713139026, 0.0011090862713139026, 0.0013349502989674698, 0.0002677937552947131, 0.0009214368191597745, 0.0011090862713139026, 0.0003223296175768086, 0.0014200327245212918, 0.0009801641587688596, 0.001510537838203444, 0.0014200327245212918, 0.001510537838203444, 0.0012549656567344947, 0.0016068112524755568, 0.001510537838203444, 0.0010426344575758478, 0.0003428731432140421, 0.0014200327245212918, 0.0013349502989674698, 0.0004669815774700653, 0.0003879716397899993, 0.0002848614635579075, 0.0003879716397899993, 0.0004669815774700653, 0.0014200327245212918, 0.0003647260007357621, 0.001510537838203444, 0.0013349502989674698, 0.00041269882864860955, 0.001510537838203444, 0.0017092206072459447, 0.0003428731432140421, 0.0004669815774700653, 0.001510537838203444, 0.001510537838203444, 0.00041269882864860955, 0.0017092206072459447, 0.0017092206072459447, 0.0004967444273161115, 0.0016068112524755568, 0.001818156973778498, 0.0003428731432140421, 0.00041269882864860955, 0.0017092206072459447, 0.0019340363480790394, 0.001818156973778498, 0.00041269882864860955, 0.0019340363480790394, 0.001818156973778498, 0.0011090862713139026, 0.0017092206072459447, 0.002327900423853803, 0.0004669815774700653, 0.002327900423853803, 0.001510537838203444, 0.002327900423853803, 0.001510537838203444, 0.002801974424504067, 0.0004669815774700653, 0.0005620817898299683, 0.002057301239461959, 0.0017092206072459447, 0.0021884223603633847, 0.0006360130503435115, 0.002801974424504067, 0.002801974424504067, 0.0017092206072459447, 0.0024762680557142897, 0.0005284041983121468, 0.002057301239461959, 0.0024762680557142897, 0.0004967444273161115, 0.0005620817898299683, 0.0024762680557142897, 0.0026340918283780184, 0.0006360130503435115, 0.00043900199318724724, 0.0024762680557142897, 0.0026340918283780184, 0.0024762680557142897, 0.002980556938445577, 0.0005979058067056204, 0.0007196685740870995, 0.002327900423853803, 0.0004967444273161115, 0.0006765490411208203, 0.002801974424504067, 0.002801974424504067, 0.002327900423853803, 0.002327900423853803, 0.0021884223603633847, 0.0004967444273161115, 0.0005620817898299683, 0.002327900423853803, 0.0026340918283780184, 0.0019340363480790394, 0.002327900423853803, 0.0005284041983121468, 0.0026340918283780184, 0.0004967444273161115, 0.0007655363100811292, 0.002980556938445577, 0.0006765490411208203, 0.0005979058067056204, 0.004059417333791517, 0.002327900423853803, 0.002980556938445577, 0.0006360130503435115, 0.002327900423853803, 0.002327900423853803, 0.002801974424504067, 0.0005979058067056204, 0.002327900423853803, 0.0005620817898299683, 0.0005620817898299683, 0.0024762680557142897, 0.002801974424504067, 0.003587543619446129, 0.002327900423853803, 0.0006765490411208203, 0.003170521324400895, 0.0008662281762778711, 0.003587543619446129, 0.002801974424504067, 0.0007196685740870995, 0.0006765490411208203, 0.0026340918283780184, 0.004059417333791517, 0.003170521324400895, 0.003587543619446129, 0.0005620817898299683, 0.0005979058067056204, 0.0005979058067056204, 0.0024762680557142897, 0.0008143274045223257, 0.003372593000596473, 0.0008662281762778711, 0.0007196685740870995, 0.0006765490411208203, 0.002980556938445577, 0.003587543619446129, 0.002980556938445577, 0.0007196685740870995, 0.0006765490411208203, 0.003372593000596473, 0.002980556938445577, 0.002980556938445577, 0.0007196685740870995, 0.002801974424504067, 0.0006360130503435115, 0.0007655363100811292, 0.0005284041983121468, 0.0007655363100811292, 0.004318142376485131, 0.002980556938445577, 0.0008143274045223257, 0.003587543619446129, 0.0008143274045223257, 0.0006360130503435115, 0.0006765490411208203, 0.003587543619446129, 0.004318142376485131, 0.0009801641587688596, 0.00552878855536345, 0.00519752665375966, 0.0045933571373359796, 0.002980556938445577, 0.0045933571373359796, 0.0007196685740870995, 0.0007196685740870995, 0.0006765490411208203, 0.00519752665375966, 0.0038161940142650993, 0.0007196685740870995, 0.002980556938445577, 0.004059417333791517, 0.003587543619446129, 0.0008662281762778711, 0.0006360130503435115, 0.003372593000596473, 0.003587543619446129, 0.004318142376485131, 0.0007655363100811292, 0.0008662281762778711, 0.0038161940142650993, 0.0008143274045223257, 0.004059417333791517, 0.004318142376485131, 0.004059417333791517, 0.0003647260007357621, 0.003372593000596473, 0.003170521324400895, 0.00519752665375966, 0.003587543619446129, 0.0045933571373359796, 0.0009801641587688596, 0.003587543619446129, 0.004318142376485131, 0.0008143274045223257, 0.003587543619446129, 0.004318142376485131, 0.0009214368191597745, 0.0038161940142650993, 0.00552878855536345, 0.0045933571373359796, 0.0008662281762778711, 0.003587543619446129, 0.003587543619446129, 0.003372593000596473, 0.004318142376485131, 0.0008143274045223257, 0.0038161940142650993, 0.004059417333791517, 0.0009214368191597745, 0.0009214368191597745, 0.00552878855536345, 0.003372593000596473, 0.004886112580727232, 0.0008662281762778711, 0.004059417333791517, 0.0045933571373359796, 0.004059417333791517, 0.004318142376485131, 0.0008662281762778711, 0.004318142376485131, 0.0010426344575758478, 0.0045933571373359796, 0.0006765490411208203, 0.0008662281762778711, 0.00519752665375966, 0.0010426344575758478, 0.0008662281762778711, 0.004318142376485131, 0.0008662281762778711, 0.004318142376485131, 0.004059417333791517, 0.0009214368191597745, 0.0009214368191597745]"
