last_val_loss,dataset,ul2,causal_denoisers,noncausal_masking,causal_divider,s_divider,r_divider,x_divider,randomize_denoiser_settings,randomize_mask_width,no_special_tokens,alternate_denoisers,progressive_tasks,model_scale,depth,width,num_params,num_non_embedding_params,num_heads,lr_mult,linear_value,seed,run_num,max_epochs,max_steps,max_tokens,max_time_seconds,gpu_capacity_scalar,train_loss_causal,train_pplx_causal,train_acc_causal,train_loss_s,train_pplx_s,train_loss_r,train_pplx_r,train_loss_x,train_pplx_x,train_acc_x_causal,train_acc_r_causal,train_acc_s_causal,train_acc_x_masked,train_acc_r_masked,train_acc_s_masked,val_loss_causal,val_pplx_causal,val_acc_causal,val_loss_s,val_pplx_s,val_loss_r,val_pplx_r,val_loss_x,val_pplx_x,grad_norm,cumulative_time,tokens_seen,epoch,batch_size,seq_length,learning_rate,weight_decay
2.8125,fineweb,true,true,false,1000.0,1000.0,1.0,1000.0,true,true,true,true,false,16.80486971279296,35,1664,773187619,605755939,26,0.9,false,1600,1,1.0,1000000000,1000000000000,1000000000,1.9,"[10.9375, 7.34375, 6.90625, 6.5, 6.625, 6.25, 6.375, 6.125, 6.0625, 6.1875, 6.125, 6.0, 6.0625, 5.75, 5.9375, 5.65625, 5.625, 5.625, 5.5625, 5.71875, 5.6875, 5.4375, 5.4375, 5.34375, 5.5, 5.375, 5.46875, 5.4375, 5.4375, 5.15625, 5.40625, 5.375, 5.125, 5.3125, 5.15625, 5.25, 5.125, 5.125, 5.09375, 5.09375, 5.09375, 4.96875, 5.1875, 4.90625, 4.9375, 5.0, 5.09375, 4.90625, 5.03125, 4.84375, 4.96875, 5.0, 5.0625, 4.9375, 4.84375, 4.8125, 5.0625, 4.71875, 4.90625, 5.09375, 4.875, 4.8125, 4.78125, 4.65625, 4.71875, 4.71875, 4.59375, 4.53125, 4.5, 4.53125, 4.625, 4.65625, 4.65625, 4.65625, 4.5625, 4.5625, 4.53125, 4.53125, 4.59375, 4.4375, 4.625, 4.5, 4.625, 4.4375, 4.5625, 4.40625, 4.5625, 4.40625, 4.5, 4.3125, 4.5, 4.28125, 4.375, 4.28125, 4.1875, 4.5, 4.34375, 4.3125, 4.34375, 4.3125, 4.28125, 4.1875, 4.15625, 4.1875, 4.15625, 4.34375, 4.09375, 4.21875, 4.28125, 4.3125, 4.1875, 4.125, 4.125, 4.1875, 4.0625, 4.15625, 4.1875, 4.125, 4.1875, 4.09375, 4.25, 4.0625, 4.125, 4.21875, 4.0625, 4.03125, 4.0, 3.890625, 3.9375, 4.0625, 4.21875, 4.0, 4.03125, 3.921875, 4.09375, 3.90625, 4.09375, 4.03125, 4.0, 4.15625, 4.03125, 3.859375, 3.796875, 4.15625, 4.0, 3.96875, 3.984375, 3.84375, 4.0, 3.890625, 3.859375, 3.84375, 3.96875, 3.890625, 3.953125, 3.921875, 4.03125, 3.875, 3.96875, 3.953125, 3.75, 3.921875, 3.875, 3.890625, 3.796875, 3.734375, 3.921875, 3.921875, 3.640625, 3.65625, 3.84375, 3.875, 3.8125, 3.71875, 3.671875, 3.65625, 3.640625, 3.78125, 3.8125, 3.84375, 3.6875, 3.796875, 3.578125, 3.734375, 3.796875, 3.640625, 3.6875, 3.796875, 3.609375, 3.953125, 3.859375, 3.828125, 3.75, 3.75, 3.859375, 3.609375, 3.625, 3.6875, 3.6875, 3.875, 3.609375, 3.734375, 3.640625, 3.671875, 3.578125, 3.84375, 3.84375, 3.890625, 3.6875, 3.515625, 3.734375, 3.53125, 3.734375, 3.59375, 3.515625, 3.484375, 3.609375, 3.609375, 3.703125, 3.640625, 3.65625, 3.734375, 3.609375, 3.390625, 3.5, 3.453125, 3.6875, 3.546875, 3.609375, 3.671875, 3.484375, 3.671875, 3.578125, 3.703125, 3.625, 3.53125, 3.4375, 3.671875, 3.609375, 3.59375, 3.59375, 3.484375, 3.609375, 3.578125, 3.6875, 3.40625, 3.578125, 3.546875, 3.53125, 3.65625, 3.421875, 3.59375, 3.53125, 3.640625, 3.484375, 3.53125, 3.5625, 3.578125, 3.453125, 3.453125, 3.59375, 3.53125, 3.46875, 3.390625, 3.453125, 3.40625, 3.609375, 3.59375, 3.421875, 3.453125, 3.640625, 3.453125, 3.515625, 3.390625, 3.578125, 3.453125, 3.5, 3.625, 3.5, 3.46875, 3.328125, 3.5, 3.421875, 3.40625, 3.4375, 3.375, 3.515625, 3.53125, 3.515625, 3.328125, 3.328125, 3.5625, 3.5625, 3.546875, 3.546875, 3.375, 3.3125, 3.359375, 3.421875, 3.453125, 3.59375, 3.4375, 3.515625, 3.5, 3.34375, 3.40625, 3.421875, 3.4375, 3.265625, 3.296875, 3.28125, 3.375, 3.546875, 3.3125, 3.4375, 3.3125, 3.46875, 3.40625, 3.390625, 3.3125, 3.375, 3.375, 3.515625, 3.359375, 3.4375, 3.34375, 3.53125, 3.203125, 3.3125, 3.53125, 3.265625, 3.296875, 3.453125, 3.359375, 3.359375, 3.25, 3.15625, 3.46875, 3.421875, 3.390625, 3.453125, 3.359375, 3.515625, 3.3125, 3.34375, 3.25, 3.28125, 3.3125, 3.28125, 3.359375, 3.3125, 3.40625, 3.328125, 3.40625, 3.375, 3.359375, 3.375, 3.46875, 3.359375, 3.1875, 3.296875, 3.453125, 3.4375, 3.546875, 3.296875, 3.453125, 3.234375, 3.484375, 3.34375, 3.265625, 3.375, 3.359375, 3.34375, 3.28125, 3.15625, 3.203125, 3.328125, 3.171875, 3.390625, 3.421875, 3.328125, 3.328125, 3.375, 3.234375, 3.234375, 3.25, 3.296875, 3.296875, 3.421875, 3.21875, 3.25, 3.375, 3.21875, 3.046875, 3.171875, 3.453125, 3.140625, 3.5, 3.21875, 3.265625, 3.390625, 3.265625, 3.265625, 3.25, 3.25, 3.15625, 3.265625, 3.15625, 3.328125, 3.296875, 3.203125, 3.25, 3.28125, 3.1875, 3.3125, 3.3125, 3.21875, 3.328125, 3.296875, 3.25, 3.25, 3.203125, 3.3125, 3.296875, 3.40625, 3.25, 3.3125, 3.140625, 3.1875, 3.359375, 3.234375, 3.359375, 3.125, 3.109375, 3.28125, 3.34375, 3.109375, 3.25, 3.25, 3.140625, 3.34375, 3.171875, 3.328125, 3.21875, 3.140625, 3.28125, 3.109375, 3.328125, 3.140625, 3.1875, 3.328125, 3.21875, 3.28125, 3.34375, 3.328125, 3.171875, 3.390625, 3.140625, 3.203125, 3.25, 3.28125, 3.078125, 3.265625, 3.234375, 3.1875, 3.015625, 3.171875, 3.265625, 3.25, 3.203125, 3.140625, 3.125, 3.21875, 3.15625, 3.203125, 3.265625, 3.078125, 3.234375, 3.234375, 3.34375, 3.1875, 3.234375, 3.25, 3.109375, 3.203125, 3.1875, 3.15625, 3.125, 3.21875, 3.09375, 3.25, 3.15625, 3.34375, 3.203125, 3.140625, 3.171875, 3.125, 3.078125, 3.046875, 3.140625, 2.96875, 3.09375, 3.078125, 3.28125, 3.1875, 3.3125, 3.1875, 3.078125, 3.125, 3.203125, 3.21875, 3.1875, 3.171875, 3.171875, 3.296875, 3.140625, 3.359375, 3.015625, 3.125, 3.21875, 3.078125, 3.109375, 3.296875, 3.140625, 3.140625, 3.1875, 3.265625, 3.0, 3.15625, 3.140625, 3.125, 3.109375, 3.140625, 3.171875, 3.140625, 3.1875, 3.125, 3.09375, 3.171875, 3.203125, 3.140625, 3.328125, 3.109375, 3.203125, 3.15625, 3.203125, 3.15625, 3.265625, 3.125, 3.15625, 3.234375, 3.1875, 2.984375, 3.203125, 3.015625, 3.1875, 3.171875, 3.171875, 3.125, 3.140625, 2.96875, 3.203125, 3.046875, 3.25, 3.15625, 3.21875, 3.25, 3.015625, 3.140625, 3.234375, 3.25, 3.296875, 3.140625, 3.0625, 3.078125, 2.96875, 2.984375, 3.125, 3.15625, 3.125, 3.21875, 3.125, 3.203125, 2.921875, 3.140625, 3.140625, 3.203125, 3.28125, 3.140625, 3.109375, 3.21875, 3.21875, 3.09375, 3.265625, 3.015625, 3.1875, 3.1875, 3.140625, 3.171875, 3.046875, 3.203125, 3.265625, 3.15625, 3.0625, 3.203125, 3.078125, 2.921875, 2.921875, 3.25, 2.890625, 3.109375, 3.1875, 3.09375, 3.0, 3.0, 3.078125, 3.046875, 3.03125, 3.03125, 3.109375, 3.0, 3.078125, 3.015625, 2.828125, 3.21875, 3.015625, 3.0625, 3.09375, 3.109375, 3.21875, 3.1875, 2.90625, 3.078125, 2.859375, 2.9375, 3.015625, 3.234375, 3.265625, 3.109375, 2.96875, 3.15625, 2.875, 3.203125, 3.1875, 3.171875, 3.078125, 3.109375, 3.09375, 3.03125, 3.125, 3.140625, 3.0, 3.046875, 3.09375, 3.125, 3.109375, 3.03125, 2.984375, 3.21875, 3.09375, 2.984375, 3.09375, 3.03125, 3.296875, 3.0, 3.03125, 3.125, 3.078125, 3.015625, 3.203125, 2.984375, 3.109375, 2.9375, 3.09375, 3.046875, 2.953125, 2.984375, 3.046875, 2.96875, 3.125, 3.125, 3.03125, 3.15625, 3.125, 3.0, 3.109375, 2.9375, 3.09375, 2.96875, 2.875, 3.09375, 3.0, 3.078125, 3.0, 3.03125, 3.203125, 2.84375, 2.984375, 3.171875, 3.078125, 2.921875, 2.96875, 3.21875, 3.03125, 2.859375, 3.046875, 2.953125, 2.984375, 3.0, 3.140625, 3.0, 2.9375, 3.0625, 3.0625, 3.140625, 3.125, 2.9375, 2.9375, 3.03125, 2.890625, 3.09375, 2.984375, 3.078125, 3.078125, 3.09375, 3.109375, 3.09375, 3.046875, 2.984375, 2.921875, 3.15625, 3.0, 3.046875, 3.015625, 3.015625, 3.015625, 2.96875, 3.078125, 3.109375, 3.015625, 2.8125, 3.03125, 2.984375, 3.078125, 3.09375, 2.9375, 3.125, 2.859375, 3.125, 2.953125, 3.0, 3.1875, 3.09375, 3.0, 3.015625, 2.9375, 2.953125, 2.984375, 2.953125, 3.0, 3.046875, 3.0625, 3.171875, 2.921875, 3.0, 3.0625, 3.015625, 3.15625, 3.109375, 3.0625, 2.96875, 3.015625, 2.859375, 3.046875, 3.015625, 2.984375, 3.171875, 3.09375, 2.9375, 3.078125, 2.96875, 3.171875, 3.0625, 3.0, 2.984375, 2.859375, 3.078125, 2.921875, 3.140625, 3.140625, 3.125, 3.125, 3.015625, 3.125, 2.859375, 3.015625, 3.015625, 3.046875, 2.984375, 3.015625, 3.015625, 3.03125, 3.125, 2.953125, 2.953125, 2.84375, 3.078125, 3.0, 3.015625, 3.0, 3.046875, 3.03125, 3.015625, 3.0, 3.015625, 2.8125, 3.03125, 3.0, 3.046875, 2.921875, 3.046875, 3.015625, 2.890625, 2.84375, 3.109375, 2.96875, 2.8125, 2.796875, 3.0, 3.0625, 3.015625, 3.109375, 3.03125, 2.984375, 2.953125, 2.953125, 2.984375, 2.921875, 2.984375, 3.09375, 2.890625, 2.796875, 2.8125, 2.890625, 2.84375, 3.109375, 2.9375, 2.890625, 3.21875, 3.046875, 3.015625, 3.015625, 3.0, 3.015625, 2.9375, 2.921875, 2.875, 2.78125, 2.84375, 2.953125, 3.0625, 2.984375, 3.0625, 2.96875, 3.0625, 3.078125, 3.1875, 2.921875, 2.890625, 3.03125, 2.9375, 2.90625, 3.0, 3.0, 3.015625, 2.953125, 2.953125, 2.890625, 2.796875, 3.03125, 2.890625, 3.125, 3.078125, 3.078125, 2.9375, 3.015625, 2.875, 2.9375, 2.984375, 2.765625, 3.03125, 3.0625, 3.0, 3.0, 3.09375, 3.0, 2.921875, 3.0, 2.984375, 2.875, 3.03125, 2.796875, 3.0, 2.953125, 2.890625, 2.921875, 3.015625, 2.84375, 2.9375, 2.96875, 2.890625, 2.96875, 3.046875, 2.984375, 2.921875, 2.96875, 2.75, 3.109375, 2.640625, 3.078125, 2.953125, 3.015625, 2.921875, 2.921875, 2.875, 2.859375, 3.0625, 2.953125, 2.984375, 3.046875, 2.953125, 3.03125, 2.875, 2.9375, 2.859375, 2.78125, 2.96875, 2.734375, 2.921875, 3.03125, 2.953125, 2.9375, 2.921875, 2.875, 2.96875, 2.796875, 2.84375, 3.09375, 3.03125, 2.875, 2.953125, 2.96875, 3.03125, 2.78125, 3.125, 3.0625, 2.703125, 2.90625, 2.90625, 2.953125, 3.0625, 2.90625, 2.953125, 3.140625, 3.0625, 2.71875, 2.84375, 2.9375, 2.90625, 2.90625, 3.03125, 2.890625, 3.015625, 2.96875, 2.9375, 2.84375, 3.0625, 2.90625, 2.984375, 2.90625, 2.890625, 3.015625, 2.953125, 2.859375, 3.046875, 3.046875, 2.84375, 2.875, 3.015625, 3.03125, 2.859375, 2.84375, 3.0, 2.890625, 3.046875, 2.953125, 2.96875, 2.90625, 2.875, 3.09375, 2.984375, 2.921875, 2.78125, 2.90625, 2.796875, 3.0, 2.875, 2.890625, 2.796875, 2.9375, 2.9375, 2.78125, 2.953125, 2.9375, 3.0, 2.953125, 2.984375, 2.671875, 2.859375, 2.9375, 3.0, 2.984375, 3.046875, 2.9375, 2.984375, 3.0, 2.984375, 2.921875, 2.875, 2.9375, 2.734375, 2.9375, 2.890625, 3.03125, 2.921875, 2.890625, 2.984375, 3.0, 2.890625, 2.859375, 2.90625, 2.84375, 2.9375, 2.984375, 2.921875, 2.96875, 2.890625, 2.90625, 3.0, 2.984375, 2.9375, 2.96875, 2.953125, 2.96875, 2.890625, 2.890625, 2.953125, 2.953125, 2.875, 2.765625, 2.953125, 2.96875, 2.796875, 2.84375, 2.953125, 3.046875, 2.96875, 3.03125, 2.84375, 3.015625, 2.921875, 2.921875, 2.75, 2.90625, 2.734375, 2.765625, 2.703125, 2.875, 2.90625, 2.8125, 2.796875, 2.984375, 3.203125, 2.84375, 2.9375, 2.953125, 2.90625, 2.796875, 2.953125, 2.921875, 2.9375, 3.0, 2.890625, 3.09375, 2.796875, 2.828125, 3.0, 2.921875, 2.75, 2.890625, 2.84375, 2.9375, 3.046875, 3.015625, 2.953125, 2.828125, 2.984375, 2.96875, 2.921875, 3.046875, 2.90625, 2.921875, 2.953125, 2.90625, 2.96875, 2.90625, 2.859375, 2.84375, 2.96875, 2.703125, 3.0, 2.828125, 2.859375, 2.890625, 2.578125, 2.828125, 2.953125, 2.765625, 2.9375, 2.875, 2.90625, 2.890625, 2.90625, 2.609375, 2.796875, 2.921875, 2.921875, 2.859375, 2.828125, 2.796875, 3.015625, 2.84375, 2.9375, 2.84375, 2.9375, 2.90625, 2.9375, 2.828125, 2.84375, 2.71875, 2.828125, 2.875, 2.984375, 2.828125, 2.859375, 2.875, 2.9375, 2.875, 2.9375, 2.71875, 2.875, 2.90625, 2.734375, 2.84375, 2.875, 2.890625, 2.84375, 2.765625, 2.828125, 2.796875, 2.796875, 2.953125, 2.890625, 2.90625, 2.9375, 2.78125, 2.875, 2.953125, 2.765625, 2.96875, 2.734375, 2.78125, 2.75, 2.765625, 2.765625, 2.890625, 3.015625, 2.671875, 2.859375, 2.796875, 2.9375, 2.875, 2.75, 2.859375, 2.96875, 3.015625, 2.859375, 2.78125, 2.796875, 2.6875, 2.78125, 2.875, 2.8125, 2.84375, 2.71875, 2.84375, 2.8125, 2.796875, 2.90625, 2.96875, 2.890625, 2.90625, 2.8125, 3.0, 2.8125, 2.796875, 2.96875, 3.0, 2.859375, 2.796875, 2.78125, 2.828125, 3.0, 2.859375, 2.8125, 2.9375, 2.921875, 2.796875, 2.828125, 2.90625, 2.640625, 2.859375, 2.921875, 2.859375, 2.65625, 2.6875, 2.890625, 2.78125, 2.875, 2.84375, 2.828125, 2.75, 2.828125, 2.796875, 2.921875, 2.828125, 2.75, 2.9375, 2.8125, 2.90625, 2.90625, 2.609375, 2.875, 2.796875, 2.828125, 2.828125, 2.78125, 2.84375, 2.90625, 2.78125, 2.84375, 2.875, 2.765625, 2.78125, 2.84375, 2.71875, 2.890625, 2.953125, 2.765625, 2.875, 2.9375, 2.875, 2.71875, 2.890625, 2.890625, 3.015625, 2.953125, 2.8125, 2.921875, 2.859375, 2.71875, 2.9375, 2.734375, 2.9375, 2.84375, 2.6875, 2.78125, 2.65625, 2.875, 2.828125, 2.78125, 2.8125, 2.78125, 2.875, 2.75, 2.84375, 2.78125, 2.78125, 2.75, 2.703125, 2.921875, 2.8125, 2.9375, 2.734375, 2.765625, 2.53125, 2.703125, 2.828125, 2.8125, 2.875, 2.765625, 2.890625, 2.671875, 3.0625, 2.71875, 2.703125, 2.796875, 2.828125, 2.6875, 2.828125, 2.796875, 2.71875, 2.765625, 2.890625, 2.671875, 2.796875, 2.796875, 2.78125, 2.6875, 2.8125, 2.8125, 2.859375, 2.828125, 2.4375, 2.859375, 2.5625, 2.703125, 2.65625, 2.78125, 2.75, 2.875, 2.734375, 2.671875, 2.765625, 2.53125, 2.828125, 2.8125, 2.734375, 2.796875, 2.828125, 2.71875, 2.546875, 2.734375, 2.828125, 2.546875, 2.625, 2.609375, 2.671875, 2.53125, 2.609375, 2.6875, 2.4375, 2.78125, 2.484375, 2.671875, 2.75, 2.59375, 2.796875, 2.84375, 2.765625, 2.9375, 2.84375, 2.71875, 2.703125, 2.703125, 2.765625, 2.546875, 2.71875, 2.640625, 2.609375, 2.703125, 2.625, 2.59375, 2.765625, 2.796875]","[56320.0, 1552.0, 1000.0, 664.0, 756.0, 520.0, 588.0, 458.0, 430.0, 488.0, 458.0, 404.0, 430.0, 314.0, 380.0, 286.0, 278.0, 278.0, 260.0, 304.0, 296.0, 230.0, 230.0, 209.0, 245.0, 216.0, 237.0, 230.0, 230.0, 174.0, 223.0, 216.0, 168.0, 203.0, 174.0, 191.0, 168.0, 168.0, 163.0, 163.0, 163.0, 144.0, 179.0, 135.0, 140.0, 149.0, 163.0, 135.0, 153.0, 127.0, 144.0, 149.0, 158.0, 140.0, 127.0, 123.0, 158.0, 112.0, 135.0, 163.0, 131.0, 123.0, 119.5, 105.5, 112.0, 112.0, 99.0, 93.0, 90.0, 93.0, 102.0, 105.5, 105.5, 105.5, 96.0, 96.0, 93.0, 93.0, 99.0, 84.5, 102.0, 90.0, 102.0, 84.5, 96.0, 82.0, 96.0, 82.0, 90.0, 74.5, 90.0, 72.5, 79.5, 72.5, 66.0, 90.0, 77.0, 74.5, 77.0, 74.5, 72.5, 66.0, 64.0, 66.0, 64.0, 77.0, 60.0, 68.0, 72.5, 74.5, 66.0, 62.0, 62.0, 66.0, 58.25, 64.0, 66.0, 62.0, 66.0, 60.0, 70.0, 58.25, 62.0, 68.0, 58.25, 56.25, 54.75, 49.0, 51.25, 58.25, 68.0, 54.75, 56.25, 50.5, 60.0, 49.75, 60.0, 56.25, 54.75, 64.0, 56.25, 47.5, 44.5, 64.0, 54.75, 53.0, 53.75, 46.75, 54.75, 49.0, 47.5, 46.75, 53.0, 49.0, 52.25, 50.5, 56.25, 48.25, 53.0, 52.25, 42.5, 50.5, 48.25, 49.0, 44.5, 42.0, 50.5, 50.5, 38.25, 38.75, 46.75, 48.25, 45.25, 41.25, 39.25, 38.75, 38.25, 44.0, 45.25, 46.75, 40.0, 44.5, 35.75, 42.0, 44.5, 38.25, 40.0, 44.5, 37.0, 52.25, 47.5, 46.0, 42.5, 42.5, 47.5, 37.0, 37.5, 40.0, 40.0, 48.25, 37.0, 42.0, 38.25, 39.25, 35.75, 46.75, 46.75, 49.0, 40.0, 33.75, 42.0, 34.25, 42.0, 36.5, 33.75, 32.5, 37.0, 37.0, 40.5, 38.25, 38.75, 42.0, 37.0, 29.75, 33.25, 31.625, 40.0, 34.75, 37.0, 39.25, 32.5, 39.25, 35.75, 40.5, 37.5, 34.25, 31.125, 39.25, 37.0, 36.5, 36.5, 32.5, 37.0, 35.75, 40.0, 30.125, 35.75, 34.75, 34.25, 38.75, 30.625, 36.5, 34.25, 38.25, 32.5, 34.25, 35.25, 35.75, 31.625, 31.625, 36.5, 34.25, 32.0, 29.75, 31.625, 30.125, 37.0, 36.5, 30.625, 31.625, 38.25, 31.625, 33.75, 29.75, 35.75, 31.625, 33.25, 37.5, 33.25, 32.0, 27.875, 33.25, 30.625, 30.125, 31.125, 29.25, 33.75, 34.25, 33.75, 27.875, 27.875, 35.25, 35.25, 34.75, 34.75, 29.25, 27.5, 28.75, 30.625, 31.625, 36.5, 31.125, 33.75, 33.25, 28.375, 30.125, 30.625, 31.125, 26.25, 27.0, 26.625, 29.25, 34.75, 27.5, 31.125, 27.5, 32.0, 30.125, 29.75, 27.5, 29.25, 29.25, 33.75, 28.75, 31.125, 28.375, 34.25, 24.625, 27.5, 34.25, 26.25, 27.0, 31.625, 28.75, 28.75, 25.75, 23.5, 32.0, 30.625, 29.75, 31.625, 28.75, 33.75, 27.5, 28.375, 25.75, 26.625, 27.5, 26.625, 28.75, 27.5, 30.125, 27.875, 30.125, 29.25, 28.75, 29.25, 32.0, 28.75, 24.25, 27.0, 31.625, 31.125, 34.75, 27.0, 31.625, 25.375, 32.5, 28.375, 26.25, 29.25, 28.75, 28.375, 26.625, 23.5, 24.625, 27.875, 23.875, 29.75, 30.625, 27.875, 27.875, 29.25, 25.375, 25.375, 25.75, 27.0, 27.0, 30.625, 25.0, 25.75, 29.25, 25.0, 21.0, 23.875, 31.625, 23.125, 33.25, 25.0, 26.25, 29.75, 26.25, 26.25, 25.75, 25.75, 23.5, 26.25, 23.5, 27.875, 27.0, 24.625, 25.75, 26.625, 24.25, 27.5, 27.5, 25.0, 27.875, 27.0, 25.75, 25.75, 24.625, 27.5, 27.0, 30.125, 25.75, 27.5, 23.125, 24.25, 28.75, 25.375, 28.75, 22.75, 22.375, 26.625, 28.375, 22.375, 25.75, 25.75, 23.125, 28.375, 23.875, 27.875, 25.0, 23.125, 26.625, 22.375, 27.875, 23.125, 24.25, 27.875, 25.0, 26.625, 28.375, 27.875, 23.875, 29.75, 23.125, 24.625, 25.75, 26.625, 21.75, 26.25, 25.375, 24.25, 20.375, 23.875, 26.25, 25.75, 24.625, 23.125, 22.75, 25.0, 23.5, 24.625, 26.25, 21.75, 25.375, 25.375, 28.375, 24.25, 25.375, 25.75, 22.375, 24.625, 24.25, 23.5, 22.75, 25.0, 22.125, 25.75, 23.5, 28.375, 24.625, 23.125, 23.875, 22.75, 21.75, 21.0, 23.125, 19.5, 22.125, 21.75, 26.625, 24.25, 27.5, 24.25, 21.75, 22.75, 24.625, 25.0, 24.25, 23.875, 23.875, 27.0, 23.125, 28.75, 20.375, 22.75, 25.0, 21.75, 22.375, 27.0, 23.125, 23.125, 24.25, 26.25, 20.125, 23.5, 23.125, 22.75, 22.375, 23.125, 23.875, 23.125, 24.25, 22.75, 22.125, 23.875, 24.625, 23.125, 27.875, 22.375, 24.625, 23.5, 24.625, 23.5, 26.25, 22.75, 23.5, 25.375, 24.25, 19.75, 24.625, 20.375, 24.25, 23.875, 23.875, 22.75, 23.125, 19.5, 24.625, 21.0, 25.75, 23.5, 25.0, 25.75, 20.375, 23.125, 25.375, 25.75, 27.0, 23.125, 21.375, 21.75, 19.5, 19.75, 22.75, 23.5, 22.75, 25.0, 22.75, 24.625, 18.625, 23.125, 23.125, 24.625, 26.625, 23.125, 22.375, 25.0, 25.0, 22.125, 26.25, 20.375, 24.25, 24.25, 23.125, 23.875, 21.0, 24.625, 26.25, 23.5, 21.375, 24.625, 21.75, 18.625, 18.625, 25.75, 18.0, 22.375, 24.25, 22.125, 20.125, 20.125, 21.75, 21.0, 20.75, 20.75, 22.375, 20.125, 21.75, 20.375, 16.875, 25.0, 20.375, 21.375, 22.125, 22.375, 25.0, 24.25, 18.25, 21.75, 17.5, 18.875, 20.375, 25.375, 26.25, 22.375, 19.5, 23.5, 17.75, 24.625, 24.25, 23.875, 21.75, 22.375, 22.125, 20.75, 22.75, 23.125, 20.125, 21.0, 22.125, 22.75, 22.375, 20.75, 19.75, 25.0, 22.125, 19.75, 22.125, 20.75, 27.0, 20.125, 20.75, 22.75, 21.75, 20.375, 24.625, 19.75, 22.375, 18.875, 22.125, 21.0, 19.125, 19.75, 21.0, 19.5, 22.75, 22.75, 20.75, 23.5, 22.75, 20.125, 22.375, 18.875, 22.125, 19.5, 17.75, 22.125, 20.125, 21.75, 20.125, 20.75, 24.625, 17.25, 19.75, 23.875, 21.75, 18.625, 19.5, 25.0, 20.75, 17.5, 21.0, 19.125, 19.75, 20.125, 23.125, 20.125, 18.875, 21.375, 21.375, 23.125, 22.75, 18.875, 18.875, 20.75, 18.0, 22.125, 19.75, 21.75, 21.75, 22.125, 22.375, 22.125, 21.0, 19.75, 18.625, 23.5, 20.125, 21.0, 20.375, 20.375, 20.375, 19.5, 21.75, 22.375, 20.375, 16.625, 20.75, 19.75, 21.75, 22.125, 18.875, 22.75, 17.5, 22.75, 19.125, 20.125, 24.25, 22.125, 20.125, 20.375, 18.875, 19.125, 19.75, 19.125, 20.125, 21.0, 21.375, 23.875, 18.625, 20.125, 21.375, 20.375, 23.5, 22.375, 21.375, 19.5, 20.375, 17.5, 21.0, 20.375, 19.75, 23.875, 22.125, 18.875, 21.75, 19.5, 23.875, 21.375, 20.125, 19.75, 17.5, 21.75, 18.625, 23.125, 23.125, 22.75, 22.75, 20.375, 22.75, 17.5, 20.375, 20.375, 21.0, 19.75, 20.375, 20.375, 20.75, 22.75, 19.125, 19.125, 17.25, 21.75, 20.125, 20.375, 20.125, 21.0, 20.75, 20.375, 20.125, 20.375, 16.625, 20.75, 20.125, 21.0, 18.625, 21.0, 20.375, 18.0, 17.25, 22.375, 19.5, 16.625, 16.375, 20.125, 21.375, 20.375, 22.375, 20.75, 19.75, 19.125, 19.125, 19.75, 18.625, 19.75, 22.125, 18.0, 16.375, 16.625, 18.0, 17.25, 22.375, 18.875, 18.0, 25.0, 21.0, 20.375, 20.375, 20.125, 20.375, 18.875, 18.625, 17.75, 16.125, 17.25, 19.125, 21.375, 19.75, 21.375, 19.5, 21.375, 21.75, 24.25, 18.625, 18.0, 20.75, 18.875, 18.25, 20.125, 20.125, 20.375, 19.125, 19.125, 18.0, 16.375, 20.75, 18.0, 22.75, 21.75, 21.75, 18.875, 20.375, 17.75, 18.875, 19.75, 15.875, 20.75, 21.375, 20.125, 20.125, 22.125, 20.125, 18.625, 20.125, 19.75, 17.75, 20.75, 16.375, 20.125, 19.125, 18.0, 18.625, 20.375, 17.25, 18.875, 19.5, 18.0, 19.5, 21.0, 19.75, 18.625, 19.5, 15.625, 22.375, 14.0, 21.75, 19.125, 20.375, 18.625, 18.625, 17.75, 17.5, 21.375, 19.125, 19.75, 21.0, 19.125, 20.75, 17.75, 18.875, 17.5, 16.125, 19.5, 15.4375, 18.625, 20.75, 19.125, 18.875, 18.625, 17.75, 19.5, 16.375, 17.25, 22.125, 20.75, 17.75, 19.125, 19.5, 20.75, 16.125, 22.75, 21.375, 14.9375, 18.25, 18.25, 19.125, 21.375, 18.25, 19.125, 23.125, 21.375, 15.1875, 17.25, 18.875, 18.25, 18.25, 20.75, 18.0, 20.375, 19.5, 18.875, 17.25, 21.375, 18.25, 19.75, 18.25, 18.0, 20.375, 19.125, 17.5, 21.0, 21.0, 17.25, 17.75, 20.375, 20.75, 17.5, 17.25, 20.125, 18.0, 21.0, 19.125, 19.5, 18.25, 17.75, 22.125, 19.75, 18.625, 16.125, 18.25, 16.375, 20.125, 17.75, 18.0, 16.375, 18.875, 18.875, 16.125, 19.125, 18.875, 20.125, 19.125, 19.75, 14.5, 17.5, 18.875, 20.125, 19.75, 21.0, 18.875, 19.75, 20.125, 19.75, 18.625, 17.75, 18.875, 15.4375, 18.875, 18.0, 20.75, 18.625, 18.0, 19.75, 20.125, 18.0, 17.5, 18.25, 17.25, 18.875, 19.75, 18.625, 19.5, 18.0, 18.25, 20.125, 19.75, 18.875, 19.5, 19.125, 19.5, 18.0, 18.0, 19.125, 19.125, 17.75, 15.875, 19.125, 19.5, 16.375, 17.25, 19.125, 21.0, 19.5, 20.75, 17.25, 20.375, 18.625, 18.625, 15.625, 18.25, 15.4375, 15.875, 14.9375, 17.75, 18.25, 16.625, 16.375, 19.75, 24.625, 17.25, 18.875, 19.125, 18.25, 16.375, 19.125, 18.625, 18.875, 20.125, 18.0, 22.125, 16.375, 16.875, 20.125, 18.625, 15.625, 18.0, 17.25, 18.875, 21.0, 20.375, 19.125, 16.875, 19.75, 19.5, 18.625, 21.0, 18.25, 18.625, 19.125, 18.25, 19.5, 18.25, 17.5, 17.25, 19.5, 14.9375, 20.125, 16.875, 17.5, 18.0, 13.1875, 16.875, 19.125, 15.875, 18.875, 17.75, 18.25, 18.0, 18.25, 13.625, 16.375, 18.625, 18.625, 17.5, 16.875, 16.375, 20.375, 17.25, 18.875, 17.25, 18.875, 18.25, 18.875, 16.875, 17.25, 15.1875, 16.875, 17.75, 19.75, 16.875, 17.5, 17.75, 18.875, 17.75, 18.875, 15.1875, 17.75, 18.25, 15.4375, 17.25, 17.75, 18.0, 17.25, 15.875, 16.875, 16.375, 16.375, 19.125, 18.0, 18.25, 18.875, 16.125, 17.75, 19.125, 15.875, 19.5, 15.4375, 16.125, 15.625, 15.875, 15.875, 18.0, 20.375, 14.5, 17.5, 16.375, 18.875, 17.75, 15.625, 17.5, 19.5, 20.375, 17.5, 16.125, 16.375, 14.6875, 16.125, 17.75, 16.625, 17.25, 15.1875, 17.25, 16.625, 16.375, 18.25, 19.5, 18.0, 18.25, 16.625, 20.125, 16.625, 16.375, 19.5, 20.125, 17.5, 16.375, 16.125, 16.875, 20.125, 17.5, 16.625, 18.875, 18.625, 16.375, 16.875, 18.25, 14.0, 17.5, 18.625, 17.5, 14.25, 14.6875, 18.0, 16.125, 17.75, 17.25, 16.875, 15.625, 16.875, 16.375, 18.625, 16.875, 15.625, 18.875, 16.625, 18.25, 18.25, 13.625, 17.75, 16.375, 16.875, 16.875, 16.125, 17.25, 18.25, 16.125, 17.25, 17.75, 15.875, 16.125, 17.25, 15.1875, 18.0, 19.125, 15.875, 17.75, 18.875, 17.75, 15.1875, 18.0, 18.0, 20.375, 19.125, 16.625, 18.625, 17.5, 15.1875, 18.875, 15.4375, 18.875, 17.25, 14.6875, 16.125, 14.25, 17.75, 16.875, 16.125, 16.625, 16.125, 17.75, 15.625, 17.25, 16.125, 16.125, 15.625, 14.9375, 18.625, 16.625, 18.875, 15.4375, 15.875, 12.5625, 14.9375, 16.875, 16.625, 17.75, 15.875, 18.0, 14.5, 21.375, 15.1875, 14.9375, 16.375, 16.875, 14.6875, 16.875, 16.375, 15.1875, 15.875, 18.0, 14.5, 16.375, 16.375, 16.125, 14.6875, 16.625, 16.625, 17.5, 16.875, 11.4375, 17.5, 13.0, 14.9375, 14.25, 16.125, 15.625, 17.75, 15.4375, 14.5, 15.875, 12.5625, 16.875, 16.625, 15.4375, 16.375, 16.875, 15.1875, 12.75, 15.4375, 16.875, 12.75, 13.8125, 13.625, 14.5, 12.5625, 13.625, 14.6875, 11.4375, 16.125, 12.0, 14.5, 15.625, 13.375, 16.375, 17.25, 15.875, 18.875, 17.25, 15.1875, 14.9375, 14.9375, 15.875, 12.75, 15.1875, 14.0, 13.625, 14.9375, 13.8125, 13.375, 15.875, 16.375]","[0.0, 0.07691271603107452, 0.08741918206214905, 0.09839709103107452, 0.07378098368644714, 0.11126077175140381, 0.09233567118644714, 0.1045595332980156, 0.10583917051553726, 0.10432381182909012, 0.10014817118644714, 0.12254175543785095, 0.10775861889123917, 0.11695177853107452, 0.11563847213983536, 0.11941002309322357, 0.1289736032485962, 0.12867052853107452, 0.14082704484462738, 0.11984778940677643, 0.11890490353107452, 0.1348329782485962, 0.134765625, 0.13917699456214905, 0.1337553858757019, 0.1259428858757019, 0.12920932471752167, 0.134765625, 0.13429418206214905, 0.1385708451271057, 0.1299501657485962, 0.13786368072032928, 0.14227505028247833, 0.13820043206214905, 0.14799973368644714, 0.12143049389123917, 0.1307246834039688, 0.14331896603107452, 0.1376279592514038, 0.1259092092514038, 0.14426185190677643, 0.14520473778247833, 0.12153151631355286, 0.1436220407485962, 0.18191002309322357, 0.14315059781074524, 0.11028420925140381, 0.15167026221752167, 0.16180630028247833, 0.15294988453388214, 0.17945177853107452, 0.1161772608757019, 0.13264413177967072, 0.15796740353107452, 0.12446120381355286, 0.14793238043785095, 0.13823410868644714, 0.16241244971752167, 0.1562163233757019, 0.13325026631355286, 0.14624865353107452, 0.1444638967514038, 0.15756331384181976, 0.17052800953388214, 0.15062634646892548, 0.15692348778247833, 0.16756466031074524, 0.1825835108757019, 0.15268050134181976, 0.1502895951271057, 0.1446659415960312, 0.18598464131355286, 0.18436826765537262, 0.13995151221752167, 0.15096309781074524, 0.12173356860876083, 0.169921875, 0.1659482717514038, 0.1737607717514038, 0.1620083451271057, 0.14813442528247833, 0.1903286576271057, 0.1407260298728943, 0.18298760056495667, 0.17652209103107452, 0.16833916306495667, 0.17729660868644714, 0.18578259646892548, 0.16938307881355286, 0.19106949865818024, 0.17248113453388214, 0.18915005028247833, 0.16554418206214905, 0.16874326765537262, 0.16382677853107452, 0.15008755028247833, 0.1943359375, 0.17935074865818024, 0.16524110734462738, 0.1757138967514038, 0.18386314809322357, 0.1873653084039688, 0.15470096468925476, 0.19945447146892548, 0.1925175040960312, 0.18712957203388214, 0.20261988043785095, 0.19393184781074524, 0.1786772608757019, 0.15958377718925476, 0.19308997690677643, 0.1902949959039688, 0.18696120381355286, 0.18332435190677643, 0.20369747281074524, 0.19898302853107452, 0.15800108015537262, 0.17315463721752167, 0.15938173234462738, 0.1690800040960312, 0.17537716031074524, 0.1776333451271057, 0.21507947146892548, 0.1621430516242981, 0.22794315218925476, 0.15995420515537262, 0.16281653940677643, 0.18116918206214905, 0.20854660868644714, 0.2149784415960312, 0.1855805516242981, 0.1747036576271057, 0.16928206384181976, 0.17840786278247833, 0.16463497281074524, 0.1688442826271057, 0.2120487540960312, 0.1856479048728943, 0.19942079484462738, 0.1748383641242981, 0.18285290896892548, 0.23168103396892548, 0.18029363453388214, 0.18086610734462738, 0.1787782907485962, 0.17820581793785095, 0.20059940218925476, 0.20736800134181976, 0.19393184781074524, 0.17988954484462738, 0.208984375, 0.2051791548728943, 0.19975754618644714, 0.20817618072032928, 0.1885775923728943, 0.1903623342514038, 0.2020137459039688, 0.17143723368644714, 0.17443425953388214, 0.21322737634181976, 0.21049973368644714, 0.1727842092514038, 0.18194369971752167, 0.23582300543785095, 0.23993130028247833, 0.22696658968925476, 0.1854458451271057, 0.21942348778247833, 0.20642510056495667, 0.1963564157485962, 0.189453125, 0.17736394703388214, 0.17594961822032928, 0.20965786278247833, 0.21824488043785095, 0.1641635298728943, 0.2247104048728943, 0.20639143884181976, 0.19059805572032928, 0.2254849076271057, 0.22211745381355286, 0.20932112634181976, 0.20379848778247833, 0.1924164891242981, 0.19372978806495667, 0.23100754618644714, 0.25639817118644714, 0.21565194427967072, 0.22622574865818024, 0.18490706384181976, 0.2059536576271057, 0.24141298234462738, 0.18972252309322357, 0.2031923532485962, 0.19093480706214905, 0.2176724076271057, 0.20753636956214905, 0.19100216031074524, 0.21945716440677643, 0.21363146603107452, 0.16924838721752167, 0.19474002718925476, 0.21026401221752167, 0.2071659415960312, 0.24063846468925476, 0.24350081384181976, 0.2002289891242981, 0.23969557881355286, 0.20093615353107452, 0.24158135056495667, 0.19315733015537262, 0.2528623342514038, 0.19308997690677643, 0.2256196141242981, 0.18608567118644714, 0.21807651221752167, 0.21029768884181976, 0.20480872690677643, 0.23383620381355286, 0.25255927443504333, 0.22497978806495667, 0.22218480706214905, 0.24339978396892548, 0.24454471468925476, 0.22481141984462738, 0.234375, 0.22605738043785095, 0.23501481115818024, 0.26636582612991333, 0.22006331384181976, 0.20231680572032928, 0.21336206793785095, 0.23356680572032928, 0.1925175040960312, 0.2332974076271057, 0.23683324456214905, 0.2606074810028076, 0.17419853806495667, 0.23585668206214905, 0.19898302853107452, 0.2196928858757019, 0.24774380028247833, 0.2402680516242981, 0.2120487540960312, 0.22615841031074524, 0.2333984375, 0.21905307471752167, 0.22629310190677643, 0.2098935842514038, 0.23265759646892548, 0.1944369673728943, 0.22929014265537262, 0.2325229048728943, 0.20935478806495667, 0.1993534415960312, 0.20544853806495667, 0.20487608015537262, 0.2041352391242981, 0.21440598368644714, 0.24174973368644714, 0.240234375, 0.2029903084039688, 0.2139682173728943, 0.2257206290960312, 0.21915408968925476, 0.2119814157485962, 0.1944032907485962, 0.24936018884181976, 0.26117995381355286, 0.21218346059322357, 0.2343076467514038, 0.21036502718925476, 0.24094153940677643, 0.2265625, 0.22706761956214905, 0.24851831793785095, 0.25336745381355286, 0.23420663177967072, 0.23124326765537262, 0.20922009646892548, 0.23898841440677643, 0.21763873100280762, 0.2333647608757019, 0.24397225677967072, 0.21568560600280762, 0.23211880028247833, 0.2470366358757019, 0.2620218098163605, 0.21898572146892548, 0.2541083097457886, 0.22787581384181976, 0.2041015625, 0.24077317118644714, 0.23770877718925476, 0.19376346468925476, 0.21743668615818024, 0.23966190218925476, 0.24979795515537262, 0.19699622690677643, 0.212890625, 0.19760237634181976, 0.25043776631355286, 0.2432650923728943, 0.2303677201271057, 0.21568560600280762, 0.2304350733757019, 0.2678811848163605, 0.22026535868644714, 0.24653151631355286, 0.2577788233757019, 0.26700565218925476, 0.2276064157485962, 0.22444100677967072, 0.2674097418785095, 0.26714035868644714, 0.22575430572032928, 0.22787581384181976, 0.2235654592514038, 0.2842133641242981, 0.21228447556495667, 0.2518520951271057, 0.19093480706214905, 0.2413456290960312, 0.22774110734462738, 0.20972521603107452, 0.24845096468925476, 0.19113685190677643, 0.2537715435028076, 0.2430630326271057, 0.2354525923728943, 0.23811288177967072, 0.24141298234462738, 0.18241514265537262, 0.22524918615818024, 0.18601831793785095, 0.22407057881355286, 0.21649380028247833, 0.22013065218925476, 0.24437634646892548, 0.20662716031074524, 0.18908269703388214, 0.2275390625, 0.24242322146892548, 0.2275390625, 0.24545393884181976, 0.23595769703388214, 0.23511584103107452, 0.2614493668079376, 0.24191810190677643, 0.21147629618644714, 0.24535290896892548, 0.24279363453388214, 0.2527613043785095, 0.2315463423728943, 0.24437634646892548, 0.22582165896892548, 0.24205279350280762, 0.22205010056495667, 0.21730199456214905, 0.21036502718925476, 0.24959591031074524, 0.21147629618644714, 0.24686826765537262, 0.20531384646892548, 0.2392914891242981, 0.21662850677967072, 0.2665005326271057, 0.21598868072032928, 0.2384159415960312, 0.23376885056495667, 0.23615975677967072, 0.2527949810028076, 0.22147764265537262, 0.2561287581920624, 0.2646821141242981, 0.23703528940677643, 0.26801589131355286, 0.21443966031074524, 0.2081425040960312, 0.21743668615818024, 0.20043103396892548, 0.2512796223163605, 0.21827855706214905, 0.2979862689971924, 0.1942685842514038, 0.23993130028247833, 0.2081088423728943, 0.23090651631355286, 0.26929551362991333, 0.2629310190677643, 0.24387122690677643, 0.23828125, 0.23908944427967072, 0.22225216031074524, 0.25643184781074524, 0.22582165896892548, 0.30859375, 0.25464707612991333, 0.22878502309322357, 0.23757408559322357, 0.21211610734462738, 0.2760641276836395, 0.2227909415960312, 0.2431640625, 0.21265490353107452, 0.23885372281074524, 0.2509428858757019, 0.2197939157485962, 0.23902209103107452, 0.23996497690677643, 0.2629310190677643, 0.23393723368644714, 0.26225754618644714, 0.27481815218925476, 0.22777478396892548, 0.2646147608757019, 0.2672750651836395, 0.19083377718925476, 0.2363618016242981, 0.21605603396892548, 0.2704404592514038, 0.21218346059322357, 0.2431303858757019, 0.24552127718925476, 0.2624259293079376, 0.2579808831214905, 0.22087149322032928, 0.2422211766242981, 0.24666622281074524, 0.22029903531074524, 0.2600350081920624, 0.2306034415960312, 0.21736934781074524, 0.2527613043785095, 0.21073545515537262, 0.24457839131355286, 0.23383620381355286, 0.2420864701271057, 0.2227909415960312, 0.23417295515537262, 0.2522561848163605, 0.24339978396892548, 0.21406923234462738, 0.23679956793785095, 0.24656519293785095, 0.23952721059322357, 0.24279363453388214, 0.2596309185028076, 0.22817887365818024, 0.2580145597457886, 0.1971309334039688, 0.24868668615818024, 0.27377423644065857, 0.2479458451271057, 0.24575699865818024, 0.2527949810028076, 0.23568831384181976, 0.25424298644065857, 0.27734375, 0.3067416548728943, 0.23514951765537262, 0.2381802201271057, 0.21450699865818024, 0.23807920515537262, 0.2607085108757019, 0.26511988043785095, 0.26225754618644714, 0.22935748100280762, 0.2526266276836395, 0.24592538177967072, 0.25245824456214905, 0.2663995027542114, 0.24885506927967072, 0.25367051362991333, 0.2529296875, 0.2673087418079376, 0.2548828125, 0.2580145597457886, 0.25047144293785095, 0.2623922526836395, 0.2362944483757019, 0.22619207203388214, 0.2570379972457886, 0.18046201765537262, 0.23942618072032928, 0.21716728806495667, 0.22996363043785095, 0.22679822146892548, 0.20373113453388214, 0.23461072146892548, 0.2420864701271057, 0.22481141984462738, 0.2451508641242981, 0.2633688151836395, 0.2812163233757019, 0.25454607605934143, 0.28653690218925476, 0.2634024918079376, 0.26811692118644714, 0.26613011956214905, 0.23275862634181976, 0.2335331290960312, 0.28455010056495667, 0.2714170217514038, 0.23397091031074524, 0.23013199865818024, 0.23181572556495667, 0.28162041306495667, 0.23895473778247833, 0.2510439157485962, 0.24663254618644714, 0.2989965081214905, 0.2687230706214905, 0.2285829782485962, 0.2402680516242981, 0.23892106115818024, 0.2537715435028076, 0.25441136956214905, 0.22831358015537262, 0.2737405598163605, 0.2802397608757019, 0.27875807881355286, 0.22487877309322357, 0.20726697146892548, 0.20376481115818024, 0.2662985026836395, 0.2549501657485962, 0.22827990353107452, 0.23747305572032928, 0.2833378314971924, 0.23770877718925476, 0.23828125, 0.24956223368644714, 0.2520878314971924, 0.2512796223163605, 0.23504848778247833, 0.25333377718925476, 0.2920932173728943, 0.2506735026836395, 0.19921875, 0.24346713721752167, 0.23599137365818024, 0.21656115353107452, 0.2637392282485962, 0.2803407907485962, 0.2644463777542114, 0.23551993072032928, 0.24888873100280762, 0.23488011956214905, 0.26124730706214905, 0.2665005326271057, 0.2526603043079376, 0.2403690665960312, 0.2675107717514038, 0.2638402581214905, 0.2674434185028076, 0.24373653531074524, 0.26710668206214905, 0.2452518790960312, 0.2501347064971924, 0.24548760056495667, 0.2471376657485962, 0.28273168206214905, 0.23905576765537262, 0.24205279350280762, 0.24952855706214905, 0.2148100733757019, 0.24744072556495667, 0.22871766984462738, 0.28357353806495667, 0.2539399266242981, 0.1991850733757019, 0.29064521193504333, 0.2853246331214905, 0.23006466031074524, 0.2627963423728943, 0.26714035868644714, 0.2413456290960312, 0.19962283968925476, 0.2736732065677643, 0.2362607717514038, 0.23309536278247833, 0.2599676847457886, 0.2648841440677643, 0.19174300134181976, 0.23848329484462738, 0.26309940218925476, 0.21117322146892548, 0.29253098368644714, 0.26905980706214905, 0.2518184185028076, 0.23521685600280762, 0.27963361144065857, 0.25952988862991333, 0.20339439809322357, 0.21167834103107452, 0.23851697146892548, 0.2741110026836395, 0.18712957203388214, 0.2882206439971924, 0.2717537581920624, 0.19763603806495667, 0.2633688151836395, 0.24575699865818024, 0.27306708693504333, 0.2567012310028076, 0.2657933831214905, 0.3006802201271057, 0.27791622281074524, 0.24043641984462738, 0.22801050543785095, 0.24686826765537262, 0.25552263855934143, 0.2431640625, 0.2742456793785095, 0.26427802443504333, 0.2295258641242981, 0.3026670217514038, 0.24858567118644714, 0.2685210108757019, 0.27896013855934143, 0.2634698152542114, 0.2820581793785095, 0.2460263967514038, 0.22790947556495667, 0.27108028531074524, 0.24956223368644714, 0.2921268939971924, 0.27182111144065857, 0.29239627718925476, 0.2560614347457886, 0.22491244971752167, 0.2596309185028076, 0.21305899322032928, 0.25660020112991333, 0.24488146603107452, 0.234375, 0.2353178858757019, 0.2570379972457886, 0.2352842092514038, 0.22683189809322357, 0.30327317118644714, 0.2579472064971924, 0.2870083451271057, 0.2693965435028076, 0.2635371685028076, 0.24201913177967072, 0.2781856060028076, 0.24047009646892548, 0.27306708693504333, 0.25525322556495667, 0.28673896193504333, 0.23491379618644714, 0.27017107605934143, 0.2635708451271057, 0.23474541306495667, 0.2608768939971924, 0.2929013967514038, 0.23801185190677643, 0.2196592092514038, 0.24969692528247833, 0.2374393790960312, 0.2960668206214905, 0.24400591850280762, 0.27084454894065857, 0.29263201355934143, 0.23030038177967072, 0.2785560190677643, 0.23181572556495667, 0.2372373342514038, 0.25919315218925476, 0.25390625, 0.27212420105934143, 0.2932718098163605, 0.2812836766242981, 0.30923357605934143, 0.2304013967514038, 0.2775121331214905, 0.2412782907485962, 0.24205279350280762, 0.23494747281074524, 0.19766971468925476, 0.2206694483757019, 0.2634698152542114, 0.2510775923728943, 0.234375, 0.29148706793785095, 0.3087958097457886, 0.24282731115818024, 0.2628300189971924, 0.23844961822032928, 0.28461745381355286, 0.21534886956214905, 0.25525322556495667, 0.2596645951271057, 0.21639278531074524, 0.2512459456920624, 0.2333984375, 0.23407192528247833, 0.2569032907485962, 0.2649514973163605, 0.23653016984462738, 0.2683526277542114, 0.23393723368644714, 0.3114560842514038, 0.22720231115818024, 0.28572872281074524, 0.24201913177967072, 0.2707771956920624, 0.25239089131355286, 0.2869746685028076, 0.28855738043785095, 0.2354189157485962, 0.2560950815677643, 0.23272494971752167, 0.2780509293079376, 0.2560950815677643, 0.2471376657485962, 0.25737473368644714, 0.22023168206214905, 0.2558256983757019, 0.28003770112991333, 0.24952855706214905, 0.3114897608757019, 0.2501010298728943, 0.2615503668785095, 0.24592538177967072, 0.23407192528247833, 0.2707098722457886, 0.2575431168079376, 0.24467942118644714, 0.2639749348163605, 0.2420864701271057, 0.25633081793785095, 0.24791216850280762, 0.22410425543785095, 0.26525458693504333, 0.2674097418785095, 0.27124863862991333, 0.32290545105934143, 0.3020608723163605, 0.2815530598163605, 0.30219557881355286, 0.24397225677967072, 0.23211880028247833, 0.2820245027542114, 0.27111396193504333, 0.22215113043785095, 0.29636988043785095, 0.26538926362991333, 0.3261381983757019, 0.2667362689971924, 0.2618871331214905, 0.27303341031074524, 0.2508755326271057, 0.28364089131355286, 0.22440733015537262, 0.24107623100280762, 0.2685883641242981, 0.24683459103107452, 0.25929418206214905, 0.2726293206214905, 0.23605872690677643, 0.22521550953388214, 0.2862001657485962, 0.24158135056495667, 0.2911840081214905, 0.2129243016242981, 0.22905442118644714, 0.24845096468925476, 0.19376346468925476, 0.2666015625, 0.2499663233757019, 0.3156990706920624, 0.30027613043785095, 0.2781519293785095, 0.23070447146892548, 0.25838497281074524, 0.3056303858757019, 0.22774110734462738, 0.27677127718925476, 0.27003636956214905, 0.24245689809322357, 0.2805091440677643, 0.2951912581920624, 0.27673760056495667, 0.2590921223163605, 0.29344019293785095, 0.23454336822032928, 0.2168979048728943, 0.2306034415960312, 0.20861394703388214, 0.22134293615818024, 0.26899245381355286, 0.2946188151836395, 0.29077988862991333, 0.2561287581920624, 0.23589035868644714, 0.2676791548728943, 0.3036099076271057, 0.28296738862991333, 0.3037782907485962, 0.2372710108757019, 0.26040545105934143, 0.27404364943504333, 0.2968076467514038, 0.2901737689971924, 0.2423221915960312, 0.2708108723163605, 0.28364089131355286, 0.2859644293785095, 0.2704067826271057, 0.2870420217514038, 0.2853246331214905, 0.26225754618644714, 0.32078394293785095, 0.2677801847457886, 0.22996363043785095, 0.25427666306495667, 0.2902747690677643, 0.2402680516242981, 0.3038456439971924, 0.27387526631355286, 0.30522629618644714, 0.2617861032485962, 0.2912176847457886, 0.2999393939971924, 0.27515488862991333, 0.2804754972457886, 0.2403017282485962, 0.24666622281074524, 0.203125, 0.2120487540960312, 0.26330146193504333, 0.27673760056495667, 0.22215113043785095, 0.2139345407485962, 0.26525458693504333, 0.21848060190677643, 0.27387526631355286, 0.2548154592514038, 0.2723935842514038, 0.271484375, 0.2587553858757019, 0.2665342092514038, 0.22312769293785095, 0.2506735026836395, 0.2834051847457886, 0.2539399266242981, 0.24383755028247833, 0.2178744673728943, 0.24481411278247833, 0.2664331793785095, 0.23972925543785095, 0.26023706793785095, 0.23945985734462738, 0.2663321793079376, 0.26518723368644714, 0.27865704894065857, 0.2625942826271057, 0.2480131983757019, 0.2770743668079376, 0.2765692472457886, 0.2922615706920624, 0.25646552443504333, 0.27111396193504333, 0.21814385056495667, 0.26219019293785095, 0.23370151221752167, 0.2697669565677643, 0.27097925543785095, 0.2850215435028076, 0.2853583097457886, 0.2843817472457886, 0.23700161278247833, 0.2168305516242981, 0.27488550543785095, 0.27882543206214905, 0.25545528531074524, 0.2706088423728943, 0.28471848368644714, 0.2677465081214905, 0.2590921223163605, 0.26518723368644714, 0.28774920105934143, 0.27693966031074524, 0.2692618668079376, 0.2870756983757019, 0.2522561848163605, 0.31192752718925476, 0.27094557881355286, 0.3241513967514038, 0.26599541306495667, 0.3201777935028076, 0.23885372281074524, 0.2645810842514038, 0.2658270597457886, 0.25040408968925476, 0.24053744971752167, 0.3077182173728943, 0.25912579894065857, 0.24632947146892548, 0.21501211822032928, 0.23410560190677643, 0.2501683831214905, 0.2989291548728943, 0.2675444483757019, 0.26404228806495667, 0.31421738862991333, 0.26892510056495667, 0.30435076355934143, 0.2589237689971924, 0.2774784564971924, 0.24080684781074524, 0.26414331793785095, 0.29165545105934143, 0.30041083693504333, 0.23211880028247833, 0.26518723368644714, 0.23945985734462738, 0.2668709456920624, 0.2750875651836395, 0.2753569483757019, 0.28966864943504333, 0.29458513855934143, 0.23578932881355286, 0.3028690814971924, 0.2540072798728943, 0.2537715435028076, 0.26316675543785095, 0.2930697798728943, 0.2685210108757019, 0.28980332612991333, 0.26508620381355286, 0.23582300543785095, 0.2850552201271057, 0.2803071141242981, 0.2841796875, 0.2736058831214905, 0.2646821141242981, 0.27515488862991333, 0.22730334103107452, 0.28178879618644714, 0.2636045217514038, 0.2619208097457886, 0.3185950815677643, 0.29040947556495667, 0.21349675953388214, 0.2518857717514038, 0.2829337418079376, 0.2810816168785095, 0.24060478806495667, 0.2717200815677643, 0.2462284415960312, 0.23386988043785095, 0.2898706793785095, 0.2899380326271057, 0.2858297526836395, 0.26219019293785095, 0.27966728806495667, 0.24336610734462738, 0.21992860734462738, 0.2490571141242981, 0.2344423532485962, 0.2119140625, 0.26114627718925476, 0.2677465081214905, 0.2576441168785095, 0.2518184185028076, 0.26734238862991333, 0.26602908968925476, 0.2569032907485962, 0.2977842092514038, 0.3398100733757019, 0.27794989943504333, 0.28296738862991333, 0.23865166306495667, 0.2980536222457886, 0.23659752309322357, 0.3000740706920624, 0.2472050040960312, 0.24834994971752167, 0.22673086822032928, 0.2955953776836395, 0.2596309185028076, 0.24582435190677643, 0.2510439157485962, 0.2727639973163605, 0.2814183831214905, 0.2976831793785095, 0.2531990706920624, 0.24383755028247833, 0.23770877718925476, 0.25828394293785095, 0.25333377718925476, 0.2576104402542114, 0.2669046223163605, 0.29653826355934143, 0.24201913177967072, 0.23558728396892548, 0.2750875651836395, 0.22979526221752167, 0.2528286576271057, 0.26037177443504333, 0.2912850081920624, 0.28367456793785095, 0.3117254972457886, 0.2526603043079376, 0.2599340081214905, 0.2781856060028076, 0.25929418206214905, 0.2863348722457886, 0.2692618668079376, 0.24659886956214905, 0.24973060190677643, 0.25444504618644714, 0.22481141984462738, 0.2882543206214905, 0.25451239943504333, 0.2823949456214905, 0.2706425189971924, 0.2168979048728943, 0.24632947146892548, 0.29054418206214905, 0.26528826355934143, 0.24498248100280762, 0.23612608015537262, 0.2666015625, 0.26020339131355286, 0.2683863043785095, 0.2607085108757019, 0.3045527935028076, 0.2697669565677643, 0.26794853806495667, 0.2667362689971924, 0.3145204782485962, 0.26889142394065857, 0.25548896193504333, 0.2977505326271057, 0.28064385056495667, 0.24009966850280762, 0.24922548234462738, 0.22673086822032928, 0.2863348722457886, 0.2580818831920624, 0.2772427201271057, 0.2850552201271057, 0.2731681168079376, 0.28364089131355286, 0.26606276631355286, 0.25336745381355286, 0.2546807527542114, 0.24632947146892548, 0.2912176847457886, 0.2736058831214905, 0.2567685842514038, 0.24158135056495667, 0.2089170217514038, 0.2927666902542114, 0.2986934185028076, 0.2541756331920624, 0.26033809781074524, 0.25037041306495667, 0.26693829894065857, 0.2511449456214905, 0.3185950815677643, 0.2822939157485962, 0.27192214131355286, 0.2745150923728943, 0.23700161278247833, 0.28589707612991333, 0.23521685600280762, 0.22403690218925476, 0.25744208693504333, 0.2516837418079376, 0.28478583693504333, 0.3311557173728943, 0.2756600081920624, 0.31910020112991333, 0.28165408968925476, 0.23710264265537262, 0.2809469401836395, 0.23097386956214905, 0.2783876657485962, 0.24467942118644714, 0.3063375651836395, 0.22433997690677643, 0.29135236144065857, 0.27690598368644714, 0.26114627718925476, 0.23316271603107452, 0.26229122281074524, 0.25649920105934143, 0.2517847418785095, 0.283203125, 0.25151535868644714, 0.2644800543785095, 0.2986934185028076, 0.29232892394065857, 0.29923221468925476, 0.2677465081214905, 0.2588564157485962, 0.2687903940677643, 0.2100956290960312, 0.2912850081920624, 0.2959994673728943, 0.2100956290960312, 0.2677128314971924, 0.2643790543079376, 0.2511449456214905, 0.2820581793785095, 0.27673760056495667, 0.2481142282485962, 0.2556909918785095, 0.2721915543079376, 0.2707435190677643, 0.2610452473163605, 0.25525322556495667, 0.2811489701271057, 0.32371363043785095, 0.27576103806495667, 0.298828125, 0.2703731060028076, 0.24659886956214905, 0.2919921875, 0.24973060190677643, 0.2581155598163605, 0.30078125, 0.29640355706214905, 0.2707771956920624, 0.23892106115818024, 0.25845232605934143, 0.26505252718925476, 0.30627021193504333, 0.2567685842514038, 0.27397629618644714, 0.29663926362991333, 0.2176724076271057, 0.2732691168785095, 0.2724609375, 0.22733701765537262, 0.2853246331214905, 0.27394261956214905, 0.27124863862991333, 0.2639075815677643, 0.23983028531074524, 0.2838766276836395, 0.2704067826271057, 0.2521888315677643, 0.2674770951271057, 0.2569706439971924, 0.3336813151836395, 0.2940126657485962, 0.28515625, 0.26714035868644714, 0.22888603806495667, 0.2413119673728943, 0.2706425189971924, 0.21171201765537262, 0.2736395597457886, 0.2648504972457886, 0.2864021956920624, 0.27299973368644714, 0.3330414891242981, 0.3009159564971924, 0.23851697146892548, 0.2677465081214905, 0.2766365706920624, 0.22137661278247833, 0.2470366358757019, 0.2654566168785095, 0.28667160868644714, 0.24760910868644714, 0.29566270112991333, 0.24494881927967072, 0.2753569483757019, 0.2610452473163605, 0.2568359375, 0.3106815814971924, 0.26427802443504333, 0.3134092092514038, 0.3117928206920624, 0.23599137365818024, 0.2784213423728943, 0.2741110026836395, 0.24282731115818024, 0.23774245381355286, 0.3020271956920624, 0.2648841440677643, 0.26815059781074524, 0.28256329894065857, 0.31088361144065857, 0.23892106115818024, 0.2518520951271057, 0.2605738043785095, 0.2522561848163605, 0.2401670217514038, 0.29525861144065857, 0.25757676362991333, 0.2747171223163605, 0.23794449865818024, 0.26508620381355286, 0.26505252718925476, 0.24144665896892548, 0.2538388967514038, 0.28943291306495667, 0.2713833451271057, 0.24952855706214905, 0.2892645597457886, 0.2753569483757019, 0.2823612689971924, 0.3116244673728943, 0.31778690218925476, 0.25242456793785095, 0.2459927201271057, 0.2869073152542114, 0.2570043206214905, 0.23878636956214905, 0.29741379618644714, 0.2848868668079376, 0.21615706384181976, 0.2686557173728943, 0.28259697556495667, 0.3108499348163605, 0.2918238043785095, 0.24451103806495667, 0.2873114347457886, 0.25151535868644714, 0.24942752718925476, 0.30525997281074524, 0.2654902935028076, 0.2584860026836395, 0.29455146193504333, 0.24834994971752167, 0.3206155598163605, 0.25138065218925476, 0.2604391276836395, 0.24238954484462738, 0.2756600081920624, 0.3055967092514038, 0.2721578776836395, 0.22935748100280762, 0.22989627718925476, 0.2596645951271057, 0.24686826765537262, 0.2908809185028076, 0.29940059781074524, 0.2725619673728943, 0.2752222418785095, 0.23969557881355286, 0.2762324810028076, 0.29943427443504333, 0.24282731115818024, 0.2555563151836395, 0.27680495381355286, 0.2703057527542114, 0.2538388967514038, 0.3075161576271057, 0.24643050134181976, 0.26225754618644714, 0.26010236144065857, 0.3124326467514038, 0.2858634293079376, 0.2663995027542114, 0.28576239943504333, 0.2588564157485962, 0.2824959456920624, 0.2770406901836395, 0.25444504618644714, 0.2658607065677643, 0.2527949810028076, 0.29623517394065857, 0.3281923532485962, 0.28360721468925476, 0.2510775923728943, 0.25033673644065857, 0.2707771956920624, 0.33081895112991333, 0.25841864943504333, 0.26030442118644714, 0.2783203125, 0.2540072798728943, 0.29232892394065857, 0.28471848368644714, 0.26131466031074524, 0.23999865353107452, 0.2832704782485962, 0.27303341031074524, 0.2654566168785095, 0.2746497690677643, 0.2966056168079376, 0.27091190218925476, 0.31010910868644714, 0.28673896193504333, 0.29923221468925476, 0.28677263855934143, 0.26895877718925476, 0.2323881983757019, 0.2880859375, 0.275390625, 0.2451845407485962, 0.3095703125, 0.2537378668785095, 0.29542699456214905, 0.27283135056495667, 0.28579607605934143, 0.3282597064971924, 0.21608971059322357, 0.2985587418079376, 0.26720771193504333, 0.3253636956214905, 0.24666622281074524, 0.2989965081214905, 0.22905442118644714, 0.2354189157485962, 0.27976831793785095, 0.2745150923728943, 0.2626616358757019, 0.2295932173728943, 0.2764008641242981, 0.29653826355934143, 0.2685210108757019, 0.32681170105934143, 0.3084253668785095, 0.27906113862991333, 0.2772427201271057, 0.24040274322032928, 0.2760978043079376, 0.2568359375, 0.30724677443504333, 0.28185614943504333, 0.23679956793785095, 0.2668709456920624, 0.2893318831920624, 0.27502021193504333, 0.29539331793785095, 0.2673087418079376, 0.28077855706214905, 0.2725282907485962, 0.2692281901836395, 0.2742120027542114, 0.2673087418079376, 0.30125269293785095, 0.2703731060028076, 0.3291352391242981, 0.3005118668079376, 0.2669046223163605, 0.2668036222457886, 0.2676454782485962, 0.26804956793785095, 0.2919585108757019, 0.2636381983757019, 0.23905576765537262, 0.2323208451271057, 0.27498653531074524, 0.25353583693504333, 0.2820581793785095, 0.3037109375, 0.2883889973163605, 0.2657597064971924, 0.2620218098163605, 0.30424973368644714, 0.25942888855934143, 0.3347588777542114, 0.26734238862991333, 0.26929551362991333, 0.32081761956214905, 0.3108162581920624, 0.2870756983757019, 0.21858163177967072, 0.24356815218925476, 0.27384158968925476, 0.29051050543785095, 0.30347520112991333, 0.29040947556495667, 0.28178879618644714, 0.3293372690677643, 0.30347520112991333, 0.31596848368644714, 0.2853919565677643, 0.3224340081214905, 0.30606815218925476, 0.24740706384181976, 0.2755590081214905, 0.2646821141242981]","[10.9375, 7.5, 7.0625, 6.65625, 6.78125, 6.875, 6.8125, 6.5625, 6.4375, 6.625, 6.53125, 6.59375, 6.53125, 6.25, 6.34375, 6.3125, 6.0, 6.15625, 6.15625, 6.375, 6.03125, 5.875, 6.0625, 5.9375, 6.03125, 5.90625, 5.8125, 6.03125, 5.96875, 5.71875, 5.9375, 6.09375, 5.625, 5.9375, 5.75, 5.6875, 5.75, 5.6875, 5.5625, 5.5625, 5.625, 5.5625, 5.53125, 5.34375, 5.625, 5.625, 5.625, 5.4375, 5.625, 5.46875, 5.75, 5.40625, 5.6875, 5.46875, 5.34375, 5.375, 5.625, 5.125, 5.46875, 5.5625, 5.46875, 5.28125, 5.28125, 5.25, 5.28125, 5.40625, 5.28125, 5.21875, 4.875, 4.90625, 4.96875, 5.1875, 5.40625, 5.125, 5.0625, 4.9375, 5.125, 5.09375, 5.1875, 4.90625, 5.21875, 5.25, 5.0625, 5.21875, 5.21875, 5.03125, 5.1875, 5.0625, 5.09375, 4.90625, 5.1875, 4.90625, 4.875, 4.875, 4.71875, 5.03125, 5.09375, 4.90625, 5.03125, 4.875, 4.8125, 4.9375, 4.65625, 4.90625, 4.71875, 4.84375, 4.9375, 4.84375, 4.78125, 4.9375, 4.9375, 4.84375, 4.75, 4.6875, 4.625, 4.875, 4.71875, 4.65625, 4.5625, 4.59375, 4.8125, 4.40625, 4.78125, 4.65625, 4.875, 4.4375, 4.4375, 4.375, 4.625, 4.75, 4.96875, 4.46875, 4.46875, 4.21875, 4.59375, 4.34375, 4.78125, 4.65625, 4.65625, 4.75, 4.625, 4.5, 4.28125, 4.71875, 4.4375, 4.53125, 4.84375, 4.53125, 4.59375, 4.46875, 4.4375, 4.34375, 4.59375, 4.59375, 4.53125, 4.5, 4.6875, 4.3125, 4.40625, 4.65625, 4.40625, 4.375, 4.46875, 4.71875, 4.53125, 4.4375, 4.46875, 4.65625, 4.21875, 4.3125, 4.5, 4.4375, 4.34375, 4.28125, 4.15625, 3.953125, 4.0625, 4.3125, 4.5, 4.4375, 4.1875, 4.40625, 3.9375, 4.375, 4.21875, 4.25, 4.40625, 4.34375, 4.21875, 4.3125, 4.40625, 4.59375, 4.25, 4.15625, 4.34375, 4.25, 4.125, 4.1875, 4.21875, 4.375, 4.03125, 4.3125, 4.3125, 4.1875, 4.21875, 4.5625, 4.46875, 4.59375, 4.1875, 4.125, 4.15625, 4.3125, 4.3125, 4.1875, 4.0, 3.984375, 4.3125, 4.125, 4.46875, 4.53125, 4.40625, 4.4375, 4.4375, 4.09375, 4.125, 4.09375, 4.59375, 4.28125, 4.375, 4.34375, 4.0, 4.21875, 4.1875, 4.28125, 4.3125, 4.15625, 4.15625, 4.1875, 4.25, 4.28125, 4.28125, 4.1875, 4.28125, 4.15625, 4.1875, 3.921875, 4.09375, 4.03125, 3.953125, 4.15625, 3.796875, 4.125, 4.125, 4.125, 3.96875, 3.84375, 4.03125, 4.09375, 3.9375, 3.828125, 4.1875, 3.96875, 3.921875, 3.953125, 3.984375, 3.828125, 3.984375, 4.1875, 3.921875, 3.96875, 4.1875, 4.125, 4.125, 3.78125, 4.03125, 4.09375, 4.03125, 4.1875, 4.03125, 4.0, 3.84375, 3.90625, 3.9375, 3.96875, 3.921875, 3.828125, 4.15625, 4.25, 4.09375, 3.96875, 3.859375, 4.15625, 4.15625, 4.0, 3.859375, 3.84375, 3.875, 4.09375, 4.0, 4.03125, 4.03125, 4.125, 4.0625, 4.21875, 3.890625, 4.0625, 4.03125, 3.890625, 3.828125, 3.953125, 3.875, 3.921875, 4.1875, 3.90625, 4.15625, 3.84375, 4.125, 3.984375, 4.21875, 3.796875, 3.8125, 3.78125, 4.28125, 3.875, 3.953125, 4.0625, 3.921875, 3.875, 3.953125, 4.125, 3.875, 3.859375, 3.71875, 3.9375, 3.71875, 3.734375, 3.640625, 3.890625, 4.28125, 3.828125, 3.953125, 4.0, 4.0625, 3.9375, 3.921875, 3.609375, 4.0, 4.0, 3.703125, 3.890625, 3.953125, 4.03125, 4.125, 3.96875, 3.875, 4.03125, 3.9375, 3.984375, 3.890625, 3.75, 3.890625, 3.90625, 4.1875, 4.09375, 3.84375, 4.125, 3.875, 3.984375, 3.859375, 3.875, 3.828125, 4.15625, 3.78125, 4.0, 3.875, 4.03125, 4.03125, 3.671875, 3.953125, 3.953125, 3.90625, 3.890625, 3.890625, 4.125, 3.65625, 3.84375, 4.03125, 3.921875, 4.21875, 3.96875, 3.9375, 3.96875, 3.8125, 3.6875, 3.90625, 3.9375, 3.921875, 4.3125, 3.8125, 3.828125, 3.890625, 4.03125, 3.828125, 4.0, 3.90625, 3.640625, 4.0625, 3.8125, 4.0, 3.90625, 4.03125, 3.71875, 4.0, 3.859375, 4.03125, 4.09375, 3.984375, 3.65625, 3.921875, 3.828125, 4.15625, 3.6875, 3.953125, 3.9375, 4.15625, 3.984375, 3.8125, 3.78125, 3.8125, 3.9375, 3.78125, 4.03125, 3.796875, 3.78125, 3.640625, 4.0625, 3.890625, 4.03125, 3.8125, 3.828125, 3.96875, 3.546875, 3.859375, 3.796875, 3.609375, 3.796875, 3.703125, 3.921875, 3.5625, 3.78125, 3.6875, 3.75, 3.9375, 3.828125, 3.75, 3.671875, 3.953125, 3.75, 3.828125, 3.9375, 3.75, 3.734375, 3.75, 3.765625, 3.84375, 3.6875, 3.90625, 3.8125, 3.765625, 3.90625, 3.765625, 3.71875, 3.921875, 3.828125, 3.84375, 3.921875, 3.671875, 3.78125, 3.875, 3.96875, 3.609375, 3.765625, 3.8125, 3.515625, 3.640625, 3.671875, 3.703125, 3.640625, 3.65625, 3.796875, 3.796875, 3.703125, 3.890625, 3.890625, 3.671875, 3.6875, 3.71875, 3.671875, 3.546875, 3.625, 3.3125, 3.5625, 3.53125, 3.890625, 3.71875, 3.859375, 3.5, 3.625, 3.484375, 3.609375, 3.671875, 3.859375, 3.84375, 3.5, 3.8125, 3.625, 3.828125, 3.34375, 3.46875, 3.765625, 3.53125, 3.640625, 3.6875, 3.546875, 3.359375, 3.78125, 3.875, 3.375, 3.640625, 3.703125, 3.578125, 3.703125, 3.5625, 3.78125, 3.765625, 3.75, 3.765625, 3.78125, 3.796875, 3.65625, 3.59375, 3.75, 3.65625, 3.6875, 3.84375, 3.765625, 3.640625, 3.8125, 3.625, 3.734375, 3.875, 3.6875, 3.3125, 3.859375, 3.59375, 3.75, 3.609375, 3.765625, 3.640625, 3.6875, 3.578125, 3.765625, 3.65625, 3.890625, 3.640625, 3.828125, 3.8125, 3.453125, 3.796875, 3.734375, 3.875, 3.625, 3.765625, 3.703125, 3.546875, 3.53125, 3.46875, 3.59375, 3.59375, 3.75, 3.828125, 3.6875, 3.859375, 3.609375, 3.546875, 3.640625, 3.8125, 3.71875, 3.765625, 3.8125, 3.75, 3.65625, 3.625, 3.8125, 3.359375, 3.546875, 3.703125, 3.609375, 3.421875, 3.6875, 3.71875, 3.75, 3.703125, 3.484375, 3.703125, 3.578125, 3.46875, 3.46875, 3.796875, 3.40625, 3.515625, 3.609375, 3.5625, 3.359375, 3.5625, 3.640625, 3.578125, 3.515625, 3.53125, 3.6875, 3.53125, 3.578125, 3.578125, 3.234375, 3.71875, 3.515625, 3.59375, 3.71875, 3.765625, 3.765625, 3.71875, 3.34375, 3.578125, 3.296875, 3.484375, 3.5625, 3.65625, 3.84375, 3.71875, 3.4375, 3.6875, 3.453125, 3.796875, 3.828125, 3.78125, 3.65625, 3.578125, 3.75, 3.421875, 3.671875, 3.71875, 3.6875, 3.734375, 3.609375, 3.578125, 3.625, 3.546875, 3.625, 3.890625, 3.53125, 3.5, 3.5625, 3.640625, 3.84375, 3.53125, 3.625, 3.453125, 3.703125, 3.40625, 3.71875, 3.453125, 3.546875, 3.53125, 3.640625, 3.796875, 3.578125, 3.421875, 3.609375, 3.34375, 3.546875, 3.5625, 3.5, 3.609375, 3.640625, 3.59375, 3.546875, 3.4375, 3.765625, 3.453125, 3.3125, 3.484375, 3.375, 3.484375, 3.484375, 3.734375, 3.703125, 3.265625, 3.390625, 3.546875, 3.546875, 3.5625, 3.453125, 3.78125, 3.5, 3.40625, 3.46875, 3.453125, 3.359375, 3.46875, 3.65625, 3.515625, 3.40625, 3.484375, 3.578125, 3.828125, 3.734375, 3.453125, 3.359375, 3.625, 3.203125, 3.59375, 3.5, 3.578125, 3.734375, 3.53125, 3.6875, 3.578125, 3.4375, 3.578125, 3.515625, 3.703125, 3.4375, 3.4375, 3.59375, 3.46875, 3.375, 3.484375, 3.640625, 3.6875, 3.625, 3.484375, 3.59375, 3.625, 3.5, 3.421875, 3.59375, 3.625, 3.125, 3.734375, 3.5625, 3.65625, 3.78125, 3.671875, 3.46875, 3.40625, 3.46875, 3.46875, 3.46875, 3.578125, 3.5, 3.578125, 3.71875, 3.609375, 3.28125, 3.5625, 3.609375, 3.65625, 3.421875, 3.5625, 3.625, 3.40625, 3.609375, 3.375, 3.78125, 3.734375, 3.640625, 3.546875, 3.53125, 3.59375, 3.546875, 3.484375, 3.875, 3.609375, 3.578125, 3.5625, 3.5, 3.671875, 3.5, 3.671875, 3.515625, 3.671875, 3.5, 3.375, 3.671875, 3.5625, 3.625, 3.5625, 3.390625, 3.59375, 3.484375, 3.6875, 3.71875, 3.671875, 3.40625, 3.40625, 3.484375, 3.71875, 3.4375, 3.53125, 3.515625, 3.609375, 3.5625, 3.484375, 3.59375, 3.5, 3.359375, 3.484375, 3.40625, 3.5625, 3.59375, 3.609375, 3.71875, 3.359375, 3.546875, 3.5625, 3.46875, 3.203125, 3.203125, 3.578125, 3.46875, 3.484375, 3.5, 3.375, 3.46875, 3.546875, 3.40625, 3.375, 3.40625, 3.421875, 3.71875, 3.234375, 3.359375, 3.4375, 3.28125, 3.40625, 3.53125, 3.515625, 3.40625, 3.703125, 3.4375, 3.375, 3.375, 3.59375, 3.484375, 3.390625, 3.359375, 3.484375, 3.3125, 3.25, 3.5, 3.609375, 3.5625, 3.640625, 3.515625, 3.546875, 3.71875, 3.734375, 3.390625, 3.390625, 3.609375, 3.453125, 3.4375, 3.578125, 3.625, 3.46875, 3.296875, 3.421875, 3.5, 3.28125, 3.703125, 3.515625, 3.75, 3.65625, 3.65625, 3.5625, 3.5, 3.28125, 3.4375, 3.375, 3.28125, 3.578125, 3.734375, 3.5625, 3.6875, 3.625, 3.5625, 3.53125, 3.515625, 3.34375, 3.46875, 3.640625, 3.15625, 3.453125, 3.3125, 3.375, 3.53125, 3.578125, 3.234375, 3.5, 3.453125, 3.59375, 3.4375, 3.609375, 3.46875, 3.34375, 3.546875, 3.328125, 3.53125, 2.96875, 3.625, 3.453125, 3.515625, 3.484375, 3.5, 3.46875, 3.25, 3.703125, 3.4375, 3.484375, 3.546875, 3.53125, 3.5625, 3.390625, 3.375, 3.328125, 3.34375, 3.625, 3.40625, 3.484375, 3.65625, 3.40625, 3.4375, 3.40625, 3.5, 3.5625, 3.375, 3.390625, 3.453125, 3.484375, 3.46875, 3.515625, 3.4375, 3.65625, 3.1875, 3.640625, 3.703125, 3.296875, 3.59375, 3.390625, 3.578125, 3.578125, 3.203125, 3.40625, 3.734375, 3.453125, 3.21875, 3.296875, 3.40625, 3.28125, 3.40625, 3.59375, 3.46875, 3.546875, 3.6875, 3.484375, 3.4375, 3.4375, 3.4375, 3.59375, 3.515625, 3.4375, 3.4375, 3.25, 3.453125, 3.515625, 3.4375, 3.203125, 3.46875, 3.578125, 3.671875, 3.3125, 3.375, 3.421875, 3.4375, 3.671875, 3.375, 3.59375, 3.625, 3.234375, 3.453125, 3.59375, 3.359375, 3.125, 3.484375, 3.390625, 3.625, 3.5, 3.359375, 3.265625, 3.46875, 3.4375, 3.328125, 3.609375, 3.40625, 3.484375, 3.453125, 3.390625, 3.234375, 3.234375, 3.453125, 3.484375, 3.3125, 3.40625, 3.5, 3.546875, 3.53125, 3.53125, 3.375, 3.421875, 3.46875, 3.359375, 3.515625, 3.265625, 3.5625, 3.421875, 3.5625, 3.484375, 3.609375, 3.53125, 3.359375, 3.421875, 3.25, 3.34375, 3.640625, 3.3125, 3.59375, 3.578125, 3.46875, 3.59375, 3.609375, 3.46875, 3.421875, 3.390625, 3.609375, 3.46875, 3.40625, 3.28125, 3.34375, 3.5, 3.484375, 3.375, 3.5, 3.3125, 3.4375, 3.375, 3.71875, 3.59375, 3.609375, 3.265625, 3.453125, 3.53125, 3.296875, 2.90625, 3.359375, 3.140625, 3.25, 3.296875, 3.359375, 3.546875, 3.296875, 3.21875, 3.421875, 3.6875, 3.421875, 3.328125, 3.484375, 3.421875, 3.40625, 3.578125, 3.515625, 3.28125, 3.46875, 3.359375, 3.53125, 3.359375, 3.171875, 3.53125, 3.515625, 3.328125, 3.421875, 3.453125, 3.40625, 3.65625, 3.515625, 3.671875, 3.40625, 3.296875, 3.453125, 3.375, 3.546875, 3.421875, 3.484375, 3.34375, 3.328125, 3.5, 3.453125, 3.5, 3.25, 3.53125, 3.375, 3.5625, 3.390625, 3.40625, 3.296875, 3.046875, 3.34375, 3.546875, 3.390625, 3.53125, 3.421875, 3.28125, 3.515625, 3.34375, 3.21875, 3.296875, 3.5, 3.5, 3.078125, 3.3125, 3.34375, 3.578125, 3.515625, 3.5, 3.390625, 3.5, 3.3125, 3.515625, 3.3125, 3.28125, 3.234375, 3.203125, 3.609375, 3.59375, 3.328125, 3.34375, 3.234375, 3.53125, 3.46875, 3.234375, 3.203125, 3.234375, 3.546875, 3.3125, 3.53125, 3.59375, 3.34375, 3.40625, 3.3125, 3.296875, 3.34375, 3.359375, 3.5625, 3.3125, 3.59375, 3.390625, 3.28125, 3.390625, 3.578125, 3.25, 3.46875, 3.359375, 3.453125, 3.1875, 3.296875, 3.453125, 3.234375, 3.484375, 3.25, 3.4375, 3.265625, 3.375, 3.484375, 3.21875, 3.390625, 3.46875, 3.5, 3.359375, 3.34375, 3.328125, 3.21875, 3.171875, 3.296875, 3.234375, 3.15625, 3.171875, 3.5, 3.515625, 3.296875, 3.609375, 3.546875, 3.421875, 3.546875, 3.40625, 3.625, 3.265625, 3.453125, 3.46875, 3.40625, 3.421875, 3.40625, 3.125, 3.4375, 3.5, 3.5625, 3.359375, 3.578125, 3.5, 3.140625, 3.359375, 3.546875, 3.125, 3.28125, 3.515625, 3.3125, 3.203125, 3.09375, 3.390625, 3.34375, 3.359375, 3.46875, 3.25, 3.078125, 3.265625, 3.375, 3.390625, 3.40625, 3.34375, 3.421875, 3.25, 3.453125, 3.53125, 3.15625, 3.328125, 3.328125, 3.359375, 3.40625, 3.1875, 3.5, 3.375, 3.328125, 3.28125, 3.484375, 3.25, 3.28125, 3.3125, 3.40625, 3.46875, 3.4375, 3.25, 3.28125, 3.59375, 3.578125, 3.375, 3.421875, 3.359375, 3.53125, 3.40625, 3.59375, 3.46875, 3.328125, 3.203125, 3.375, 3.34375, 3.484375, 3.46875, 3.15625, 3.3125, 3.15625, 3.328125, 3.484375, 3.484375, 3.421875, 3.390625, 3.40625, 3.265625, 3.484375, 3.15625, 3.15625, 3.390625, 3.203125, 3.46875, 3.390625, 3.34375, 3.328125, 3.21875, 3.03125, 3.453125, 3.234375, 3.328125, 3.5, 3.40625, 3.46875, 3.296875, 3.625, 3.109375, 3.265625, 3.484375, 3.234375, 2.859375, 3.28125, 3.40625, 3.203125, 3.46875, 3.53125, 3.125, 3.28125, 3.171875, 3.25, 3.125, 3.484375, 3.265625, 3.296875, 3.484375, 2.890625, 3.453125, 3.125, 3.234375, 3.203125, 3.34375, 3.390625, 3.34375, 3.234375, 3.203125, 3.171875, 3.234375, 3.390625, 3.359375, 3.078125, 3.296875, 3.359375, 3.3125, 3.109375, 3.1875, 3.3125, 3.171875, 2.875, 3.046875, 3.25, 2.921875, 3.21875, 3.046875, 3.09375, 3.328125, 3.203125, 3.203125, 3.265625, 3.03125, 3.4375, 3.578125, 3.125, 3.421875, 3.3125, 3.1875, 3.21875, 3.171875, 3.15625, 3.21875, 3.375, 3.1875, 3.03125, 3.34375, 3.171875, 3.0625, 3.234375, 3.34375]","[56320.0, 1808.0, 1168.0, 780.0, 884.0, 968.0, 912.0, 708.0, 624.0, 756.0, 688.0, 732.0, 688.0, 520.0, 568.0, 552.0, 404.0, 472.0, 472.0, 588.0, 416.0, 356.0, 430.0, 380.0, 416.0, 368.0, 334.0, 416.0, 392.0, 304.0, 380.0, 444.0, 278.0, 380.0, 314.0, 296.0, 314.0, 296.0, 260.0, 260.0, 278.0, 260.0, 253.0, 209.0, 278.0, 278.0, 278.0, 230.0, 278.0, 237.0, 314.0, 223.0, 296.0, 237.0, 209.0, 216.0, 278.0, 168.0, 237.0, 260.0, 237.0, 197.0, 197.0, 191.0, 197.0, 223.0, 197.0, 185.0, 131.0, 135.0, 144.0, 179.0, 223.0, 168.0, 158.0, 140.0, 168.0, 163.0, 179.0, 135.0, 185.0, 191.0, 158.0, 185.0, 185.0, 153.0, 179.0, 158.0, 163.0, 135.0, 179.0, 135.0, 131.0, 131.0, 112.0, 153.0, 163.0, 135.0, 153.0, 131.0, 123.0, 140.0, 105.5, 135.0, 112.0, 127.0, 140.0, 127.0, 119.5, 140.0, 140.0, 127.0, 115.5, 108.5, 102.0, 131.0, 112.0, 105.5, 96.0, 99.0, 123.0, 82.0, 119.5, 105.5, 131.0, 84.5, 84.5, 79.5, 102.0, 115.5, 144.0, 87.5, 87.5, 68.0, 99.0, 77.0, 119.5, 105.5, 105.5, 115.5, 102.0, 90.0, 72.5, 112.0, 84.5, 93.0, 127.0, 93.0, 99.0, 87.5, 84.5, 77.0, 99.0, 99.0, 93.0, 90.0, 108.5, 74.5, 82.0, 105.5, 82.0, 79.5, 87.5, 112.0, 93.0, 84.5, 87.5, 105.5, 68.0, 74.5, 90.0, 84.5, 77.0, 72.5, 64.0, 52.25, 58.25, 74.5, 90.0, 84.5, 66.0, 82.0, 51.25, 79.5, 68.0, 70.0, 82.0, 77.0, 68.0, 74.5, 82.0, 99.0, 70.0, 64.0, 77.0, 70.0, 62.0, 66.0, 68.0, 79.5, 56.25, 74.5, 74.5, 66.0, 68.0, 96.0, 87.5, 99.0, 66.0, 62.0, 64.0, 74.5, 74.5, 66.0, 54.75, 53.75, 74.5, 62.0, 87.5, 93.0, 82.0, 84.5, 84.5, 60.0, 62.0, 60.0, 99.0, 72.5, 79.5, 77.0, 54.75, 68.0, 66.0, 72.5, 74.5, 64.0, 64.0, 66.0, 70.0, 72.5, 72.5, 66.0, 72.5, 64.0, 66.0, 50.5, 60.0, 56.25, 52.25, 64.0, 44.5, 62.0, 62.0, 62.0, 53.0, 46.75, 56.25, 60.0, 51.25, 46.0, 66.0, 53.0, 50.5, 52.25, 53.75, 46.0, 53.75, 66.0, 50.5, 53.0, 66.0, 62.0, 62.0, 44.0, 56.25, 60.0, 56.25, 66.0, 56.25, 54.75, 46.75, 49.75, 51.25, 53.0, 50.5, 46.0, 64.0, 70.0, 60.0, 53.0, 47.5, 64.0, 64.0, 54.75, 47.5, 46.75, 48.25, 60.0, 54.75, 56.25, 56.25, 62.0, 58.25, 68.0, 49.0, 58.25, 56.25, 49.0, 46.0, 52.25, 48.25, 50.5, 66.0, 49.75, 64.0, 46.75, 62.0, 53.75, 68.0, 44.5, 45.25, 44.0, 72.5, 48.25, 52.25, 58.25, 50.5, 48.25, 52.25, 62.0, 48.25, 47.5, 41.25, 51.25, 41.25, 42.0, 38.25, 49.0, 72.5, 46.0, 52.25, 54.75, 58.25, 51.25, 50.5, 37.0, 54.75, 54.75, 40.5, 49.0, 52.25, 56.25, 62.0, 53.0, 48.25, 56.25, 51.25, 53.75, 49.0, 42.5, 49.0, 49.75, 66.0, 60.0, 46.75, 62.0, 48.25, 53.75, 47.5, 48.25, 46.0, 64.0, 44.0, 54.75, 48.25, 56.25, 56.25, 39.25, 52.25, 52.25, 49.75, 49.0, 49.0, 62.0, 38.75, 46.75, 56.25, 50.5, 68.0, 53.0, 51.25, 53.0, 45.25, 40.0, 49.75, 51.25, 50.5, 74.5, 45.25, 46.0, 49.0, 56.25, 46.0, 54.75, 49.75, 38.25, 58.25, 45.25, 54.75, 49.75, 56.25, 41.25, 54.75, 47.5, 56.25, 60.0, 53.75, 38.75, 50.5, 46.0, 64.0, 40.0, 52.25, 51.25, 64.0, 53.75, 45.25, 44.0, 45.25, 51.25, 44.0, 56.25, 44.5, 44.0, 38.25, 58.25, 49.0, 56.25, 45.25, 46.0, 53.0, 34.75, 47.5, 44.5, 37.0, 44.5, 40.5, 50.5, 35.25, 44.0, 40.0, 42.5, 51.25, 46.0, 42.5, 39.25, 52.25, 42.5, 46.0, 51.25, 42.5, 42.0, 42.5, 43.25, 46.75, 40.0, 49.75, 45.25, 43.25, 49.75, 43.25, 41.25, 50.5, 46.0, 46.75, 50.5, 39.25, 44.0, 48.25, 53.0, 37.0, 43.25, 45.25, 33.75, 38.25, 39.25, 40.5, 38.25, 38.75, 44.5, 44.5, 40.5, 49.0, 49.0, 39.25, 40.0, 41.25, 39.25, 34.75, 37.5, 27.5, 35.25, 34.25, 49.0, 41.25, 47.5, 33.25, 37.5, 32.5, 37.0, 39.25, 47.5, 46.75, 33.25, 45.25, 37.5, 46.0, 28.375, 32.0, 43.25, 34.25, 38.25, 40.0, 34.75, 28.75, 44.0, 48.25, 29.25, 38.25, 40.5, 35.75, 40.5, 35.25, 44.0, 43.25, 42.5, 43.25, 44.0, 44.5, 38.75, 36.5, 42.5, 38.75, 40.0, 46.75, 43.25, 38.25, 45.25, 37.5, 42.0, 48.25, 40.0, 27.5, 47.5, 36.5, 42.5, 37.0, 43.25, 38.25, 40.0, 35.75, 43.25, 38.75, 49.0, 38.25, 46.0, 45.25, 31.625, 44.5, 42.0, 48.25, 37.5, 43.25, 40.5, 34.75, 34.25, 32.0, 36.5, 36.5, 42.5, 46.0, 40.0, 47.5, 37.0, 34.75, 38.25, 45.25, 41.25, 43.25, 45.25, 42.5, 38.75, 37.5, 45.25, 28.75, 34.75, 40.5, 37.0, 30.625, 40.0, 41.25, 42.5, 40.5, 32.5, 40.5, 35.75, 32.0, 32.0, 44.5, 30.125, 33.75, 37.0, 35.25, 28.75, 35.25, 38.25, 35.75, 33.75, 34.25, 40.0, 34.25, 35.75, 35.75, 25.375, 41.25, 33.75, 36.5, 41.25, 43.25, 43.25, 41.25, 28.375, 35.75, 27.0, 32.5, 35.25, 38.75, 46.75, 41.25, 31.125, 40.0, 31.625, 44.5, 46.0, 44.0, 38.75, 35.75, 42.5, 30.625, 39.25, 41.25, 40.0, 42.0, 37.0, 35.75, 37.5, 34.75, 37.5, 49.0, 34.25, 33.25, 35.25, 38.25, 46.75, 34.25, 37.5, 31.625, 40.5, 30.125, 41.25, 31.625, 34.75, 34.25, 38.25, 44.5, 35.75, 30.625, 37.0, 28.375, 34.75, 35.25, 33.25, 37.0, 38.25, 36.5, 34.75, 31.125, 43.25, 31.625, 27.5, 32.5, 29.25, 32.5, 32.5, 42.0, 40.5, 26.25, 29.75, 34.75, 34.75, 35.25, 31.625, 44.0, 33.25, 30.125, 32.0, 31.625, 28.75, 32.0, 38.75, 33.75, 30.125, 32.5, 35.75, 46.0, 42.0, 31.625, 28.75, 37.5, 24.625, 36.5, 33.25, 35.75, 42.0, 34.25, 40.0, 35.75, 31.125, 35.75, 33.75, 40.5, 31.125, 31.125, 36.5, 32.0, 29.25, 32.5, 38.25, 40.0, 37.5, 32.5, 36.5, 37.5, 33.25, 30.625, 36.5, 37.5, 22.75, 42.0, 35.25, 38.75, 44.0, 39.25, 32.0, 30.125, 32.0, 32.0, 32.0, 35.75, 33.25, 35.75, 41.25, 37.0, 26.625, 35.25, 37.0, 38.75, 30.625, 35.25, 37.5, 30.125, 37.0, 29.25, 44.0, 42.0, 38.25, 34.75, 34.25, 36.5, 34.75, 32.5, 48.25, 37.0, 35.75, 35.25, 33.25, 39.25, 33.25, 39.25, 33.75, 39.25, 33.25, 29.25, 39.25, 35.25, 37.5, 35.25, 29.75, 36.5, 32.5, 40.0, 41.25, 39.25, 30.125, 30.125, 32.5, 41.25, 31.125, 34.25, 33.75, 37.0, 35.25, 32.5, 36.5, 33.25, 28.75, 32.5, 30.125, 35.25, 36.5, 37.0, 41.25, 28.75, 34.75, 35.25, 32.0, 24.625, 24.625, 35.75, 32.0, 32.5, 33.25, 29.25, 32.0, 34.75, 30.125, 29.25, 30.125, 30.625, 41.25, 25.375, 28.75, 31.125, 26.625, 30.125, 34.25, 33.75, 30.125, 40.5, 31.125, 29.25, 29.25, 36.5, 32.5, 29.75, 28.75, 32.5, 27.5, 25.75, 33.25, 37.0, 35.25, 38.25, 33.75, 34.75, 41.25, 42.0, 29.75, 29.75, 37.0, 31.625, 31.125, 35.75, 37.5, 32.0, 27.0, 30.625, 33.25, 26.625, 40.5, 33.75, 42.5, 38.75, 38.75, 35.25, 33.25, 26.625, 31.125, 29.25, 26.625, 35.75, 42.0, 35.25, 40.0, 37.5, 35.25, 34.25, 33.75, 28.375, 32.0, 38.25, 23.5, 31.625, 27.5, 29.25, 34.25, 35.75, 25.375, 33.25, 31.625, 36.5, 31.125, 37.0, 32.0, 28.375, 34.75, 27.875, 34.25, 19.5, 37.5, 31.625, 33.75, 32.5, 33.25, 32.0, 25.75, 40.5, 31.125, 32.5, 34.75, 34.25, 35.25, 29.75, 29.25, 27.875, 28.375, 37.5, 30.125, 32.5, 38.75, 30.125, 31.125, 30.125, 33.25, 35.25, 29.25, 29.75, 31.625, 32.5, 32.0, 33.75, 31.125, 38.75, 24.25, 38.25, 40.5, 27.0, 36.5, 29.75, 35.75, 35.75, 24.625, 30.125, 42.0, 31.625, 25.0, 27.0, 30.125, 26.625, 30.125, 36.5, 32.0, 34.75, 40.0, 32.5, 31.125, 31.125, 31.125, 36.5, 33.75, 31.125, 31.125, 25.75, 31.625, 33.75, 31.125, 24.625, 32.0, 35.75, 39.25, 27.5, 29.25, 30.625, 31.125, 39.25, 29.25, 36.5, 37.5, 25.375, 31.625, 36.5, 28.75, 22.75, 32.5, 29.75, 37.5, 33.25, 28.75, 26.25, 32.0, 31.125, 27.875, 37.0, 30.125, 32.5, 31.625, 29.75, 25.375, 25.375, 31.625, 32.5, 27.5, 30.125, 33.25, 34.75, 34.25, 34.25, 29.25, 30.625, 32.0, 28.75, 33.75, 26.25, 35.25, 30.625, 35.25, 32.5, 37.0, 34.25, 28.75, 30.625, 25.75, 28.375, 38.25, 27.5, 36.5, 35.75, 32.0, 36.5, 37.0, 32.0, 30.625, 29.75, 37.0, 32.0, 30.125, 26.625, 28.375, 33.25, 32.5, 29.25, 33.25, 27.5, 31.125, 29.25, 41.25, 36.5, 37.0, 26.25, 31.625, 34.25, 27.0, 18.25, 28.75, 23.125, 25.75, 27.0, 28.75, 34.75, 27.0, 25.0, 30.625, 40.0, 30.625, 27.875, 32.5, 30.625, 30.125, 35.75, 33.75, 26.625, 32.0, 28.75, 34.25, 28.75, 23.875, 34.25, 33.75, 27.875, 30.625, 31.625, 30.125, 38.75, 33.75, 39.25, 30.125, 27.0, 31.625, 29.25, 34.75, 30.625, 32.5, 28.375, 27.875, 33.25, 31.625, 33.25, 25.75, 34.25, 29.25, 35.25, 29.75, 30.125, 27.0, 21.0, 28.375, 34.75, 29.75, 34.25, 30.625, 26.625, 33.75, 28.375, 25.0, 27.0, 33.25, 33.25, 21.75, 27.5, 28.375, 35.75, 33.75, 33.25, 29.75, 33.25, 27.5, 33.75, 27.5, 26.625, 25.375, 24.625, 37.0, 36.5, 27.875, 28.375, 25.375, 34.25, 32.0, 25.375, 24.625, 25.375, 34.75, 27.5, 34.25, 36.5, 28.375, 30.125, 27.5, 27.0, 28.375, 28.75, 35.25, 27.5, 36.5, 29.75, 26.625, 29.75, 35.75, 25.75, 32.0, 28.75, 31.625, 24.25, 27.0, 31.625, 25.375, 32.5, 25.75, 31.125, 26.25, 29.25, 32.5, 25.0, 29.75, 32.0, 33.25, 28.75, 28.375, 27.875, 25.0, 23.875, 27.0, 25.375, 23.5, 23.875, 33.25, 33.75, 27.0, 37.0, 34.75, 30.625, 34.75, 30.125, 37.5, 26.25, 31.625, 32.0, 30.125, 30.625, 30.125, 22.75, 31.125, 33.25, 35.25, 28.75, 35.75, 33.25, 23.125, 28.75, 34.75, 22.75, 26.625, 33.75, 27.5, 24.625, 22.125, 29.75, 28.375, 28.75, 32.0, 25.75, 21.75, 26.25, 29.25, 29.75, 30.125, 28.375, 30.625, 25.75, 31.625, 34.25, 23.5, 27.875, 27.875, 28.75, 30.125, 24.25, 33.25, 29.25, 27.875, 26.625, 32.5, 25.75, 26.625, 27.5, 30.125, 32.0, 31.125, 25.75, 26.625, 36.5, 35.75, 29.25, 30.625, 28.75, 34.25, 30.125, 36.5, 32.0, 27.875, 24.625, 29.25, 28.375, 32.5, 32.0, 23.5, 27.5, 23.5, 27.875, 32.5, 32.5, 30.625, 29.75, 30.125, 26.25, 32.5, 23.5, 23.5, 29.75, 24.625, 32.0, 29.75, 28.375, 27.875, 25.0, 20.75, 31.625, 25.375, 27.875, 33.25, 30.125, 32.0, 27.0, 37.5, 22.375, 26.25, 32.5, 25.375, 17.5, 26.625, 30.125, 24.625, 32.0, 34.25, 22.75, 26.625, 23.875, 25.75, 22.75, 32.5, 26.25, 27.0, 32.5, 18.0, 31.625, 22.75, 25.375, 24.625, 28.375, 29.75, 28.375, 25.375, 24.625, 23.875, 25.375, 29.75, 28.75, 21.75, 27.0, 28.75, 27.5, 22.375, 24.25, 27.5, 23.875, 17.75, 21.0, 25.75, 18.625, 25.0, 21.0, 22.125, 27.875, 24.625, 24.625, 26.25, 20.75, 31.125, 35.75, 22.75, 30.625, 27.5, 24.25, 25.0, 23.875, 23.5, 25.0, 29.25, 24.25, 20.75, 28.375, 23.875, 21.375, 25.375, 28.375]","[10.9375, 7.46875, 7.0625, 6.65625, 6.8125, 6.4375, 6.59375, 6.34375, 6.28125, 6.40625, 6.375, 6.21875, 6.28125, 6.0, 6.1875, 5.90625, 5.875, 5.90625, 5.84375, 5.96875, 5.9375, 5.71875, 5.71875, 5.65625, 5.78125, 5.65625, 5.71875, 5.6875, 5.71875, 5.4375, 5.65625, 5.65625, 5.40625, 5.625, 5.4375, 5.5625, 5.4375, 5.40625, 5.40625, 5.40625, 5.40625, 5.28125, 5.5, 5.21875, 5.25, 5.3125, 5.375, 5.21875, 5.34375, 5.1875, 5.3125, 5.28125, 5.375, 5.25, 5.1875, 5.15625, 5.375, 5.09375, 5.21875, 5.4375, 5.21875, 5.15625, 5.125, 4.96875, 5.03125, 5.0625, 4.9375, 4.875, 4.875, 4.875, 4.96875, 5.03125, 5.03125, 5.0, 4.90625, 4.9375, 4.875, 4.90625, 4.90625, 4.78125, 4.96875, 4.84375, 4.96875, 4.78125, 4.90625, 4.75, 4.9375, 4.78125, 4.875, 4.6875, 4.84375, 4.65625, 4.75, 4.65625, 4.5625, 4.875, 4.71875, 4.6875, 4.71875, 4.6875, 4.65625, 4.5625, 4.5625, 4.5625, 4.5625, 4.75, 4.46875, 4.59375, 4.6875, 4.6875, 4.5625, 4.53125, 4.53125, 4.59375, 4.46875, 4.5625, 4.59375, 4.5, 4.5625, 4.46875, 4.65625, 4.46875, 4.53125, 4.59375, 4.46875, 4.4375, 4.4375, 4.3125, 4.3125, 4.46875, 4.625, 4.4375, 4.4375, 4.3125, 4.5, 4.3125, 4.5, 4.4375, 4.4375, 4.53125, 4.4375, 4.28125, 4.25, 4.53125, 4.40625, 4.40625, 4.40625, 4.28125, 4.4375, 4.3125, 4.28125, 4.25, 4.375, 4.28125, 4.375, 4.34375, 4.46875, 4.3125, 4.40625, 4.34375, 4.15625, 4.34375, 4.3125, 4.3125, 4.21875, 4.15625, 4.34375, 4.3125, 4.09375, 4.0625, 4.25, 4.3125, 4.25, 4.15625, 4.09375, 4.09375, 4.0625, 4.21875, 4.25, 4.28125, 4.125, 4.21875, 4.03125, 4.15625, 4.21875, 4.09375, 4.125, 4.21875, 4.0625, 4.375, 4.28125, 4.25, 4.1875, 4.15625, 4.28125, 4.03125, 4.03125, 4.125, 4.125, 4.28125, 4.0625, 4.1875, 4.0625, 4.125, 4.03125, 4.28125, 4.28125, 4.3125, 4.125, 3.9375, 4.1875, 3.984375, 4.125, 4.03125, 3.953125, 3.921875, 4.03125, 4.03125, 4.15625, 4.09375, 4.09375, 4.15625, 4.0625, 3.859375, 3.953125, 3.921875, 4.125, 4.0, 4.03125, 4.09375, 3.921875, 4.09375, 4.03125, 4.125, 4.0625, 3.9375, 3.859375, 4.125, 4.0625, 4.0625, 4.03125, 3.9375, 4.0625, 4.03125, 4.15625, 3.859375, 4.03125, 4.0, 3.984375, 4.09375, 3.875, 4.03125, 3.96875, 4.09375, 3.921875, 4.0, 4.0, 4.03125, 3.890625, 3.890625, 4.03125, 3.96875, 3.9375, 3.828125, 3.890625, 3.859375, 4.0625, 4.03125, 3.875, 3.921875, 4.0625, 3.90625, 3.96875, 3.875, 4.03125, 3.890625, 3.9375, 4.0625, 3.953125, 3.90625, 3.78125, 3.953125, 3.875, 3.875, 3.875, 3.84375, 3.953125, 3.984375, 3.953125, 3.78125, 3.8125, 4.03125, 4.0, 3.984375, 3.953125, 3.84375, 3.765625, 3.8125, 3.875, 3.890625, 4.03125, 3.875, 3.96875, 3.953125, 3.796875, 3.859375, 3.875, 3.890625, 3.71875, 3.75, 3.734375, 3.796875, 3.96875, 3.78125, 3.90625, 3.78125, 3.9375, 3.875, 3.859375, 3.765625, 3.828125, 3.828125, 3.984375, 3.8125, 3.921875, 3.8125, 3.953125, 3.6875, 3.765625, 3.984375, 3.734375, 3.75, 3.890625, 3.8125, 3.796875, 3.71875, 3.625, 3.921875, 3.890625, 3.84375, 3.921875, 3.8125, 3.953125, 3.78125, 3.796875, 3.71875, 3.71875, 3.765625, 3.71875, 3.828125, 3.765625, 3.859375, 3.78125, 3.84375, 3.8125, 3.828125, 3.84375, 3.921875, 3.828125, 3.625, 3.765625, 3.90625, 3.90625, 3.984375, 3.78125, 3.90625, 3.703125, 3.9375, 3.78125, 3.71875, 3.828125, 3.8125, 3.8125, 3.71875, 3.640625, 3.703125, 3.78125, 3.640625, 3.84375, 3.859375, 3.796875, 3.796875, 3.828125, 3.6875, 3.703125, 3.734375, 3.734375, 3.75, 3.875, 3.671875, 3.703125, 3.828125, 3.65625, 3.5, 3.625, 3.90625, 3.625, 3.984375, 3.671875, 3.734375, 3.84375, 3.75, 3.734375, 3.71875, 3.71875, 3.609375, 3.734375, 3.625, 3.78125, 3.734375, 3.65625, 3.671875, 3.75, 3.65625, 3.734375, 3.78125, 3.703125, 3.78125, 3.75, 3.6875, 3.71875, 3.703125, 3.765625, 3.765625, 3.890625, 3.703125, 3.765625, 3.625, 3.625, 3.796875, 3.703125, 3.8125, 3.578125, 3.59375, 3.75, 3.796875, 3.5625, 3.75, 3.71875, 3.59375, 3.796875, 3.65625, 3.78125, 3.671875, 3.625, 3.734375, 3.578125, 3.78125, 3.59375, 3.671875, 3.796875, 3.6875, 3.75, 3.8125, 3.78125, 3.640625, 3.828125, 3.59375, 3.65625, 3.71875, 3.71875, 3.546875, 3.75, 3.703125, 3.640625, 3.484375, 3.640625, 3.703125, 3.703125, 3.671875, 3.578125, 3.578125, 3.703125, 3.59375, 3.65625, 3.71875, 3.5625, 3.671875, 3.703125, 3.828125, 3.640625, 3.6875, 3.703125, 3.578125, 3.65625, 3.671875, 3.609375, 3.59375, 3.6875, 3.5625, 3.703125, 3.609375, 3.796875, 3.671875, 3.578125, 3.640625, 3.578125, 3.53125, 3.515625, 3.59375, 3.421875, 3.546875, 3.53125, 3.734375, 3.640625, 3.78125, 3.65625, 3.546875, 3.59375, 3.671875, 3.6875, 3.671875, 3.65625, 3.65625, 3.78125, 3.59375, 3.828125, 3.46875, 3.578125, 3.671875, 3.53125, 3.5625, 3.75, 3.59375, 3.609375, 3.65625, 3.71875, 3.484375, 3.65625, 3.59375, 3.578125, 3.5625, 3.59375, 3.640625, 3.625, 3.65625, 3.609375, 3.546875, 3.640625, 3.640625, 3.59375, 3.78125, 3.5625, 3.65625, 3.625, 3.625, 3.625, 3.734375, 3.5625, 3.625, 3.671875, 3.65625, 3.4375, 3.671875, 3.484375, 3.640625, 3.640625, 3.625, 3.59375, 3.609375, 3.421875, 3.671875, 3.53125, 3.734375, 3.640625, 3.671875, 3.703125, 3.484375, 3.609375, 3.703125, 3.71875, 3.75, 3.609375, 3.5625, 3.53125, 3.421875, 3.4375, 3.578125, 3.625, 3.609375, 3.65625, 3.609375, 3.65625, 3.375, 3.609375, 3.59375, 3.6875, 3.75, 3.609375, 3.578125, 3.6875, 3.671875, 3.546875, 3.71875, 3.46875, 3.65625, 3.65625, 3.59375, 3.65625, 3.515625, 3.671875, 3.71875, 3.609375, 3.53125, 3.65625, 3.53125, 3.40625, 3.40625, 3.703125, 3.359375, 3.5625, 3.65625, 3.546875, 3.4375, 3.453125, 3.578125, 3.5, 3.5, 3.53125, 3.59375, 3.46875, 3.546875, 3.453125, 3.296875, 3.671875, 3.46875, 3.53125, 3.5625, 3.5625, 3.6875, 3.640625, 3.390625, 3.546875, 3.34375, 3.4375, 3.5, 3.703125, 3.71875, 3.578125, 3.4375, 3.609375, 3.34375, 3.671875, 3.671875, 3.625, 3.546875, 3.5625, 3.578125, 3.484375, 3.578125, 3.640625, 3.46875, 3.53125, 3.578125, 3.578125, 3.5625, 3.5, 3.453125, 3.6875, 3.578125, 3.421875, 3.546875, 3.5, 3.75, 3.46875, 3.5, 3.578125, 3.53125, 3.46875, 3.671875, 3.421875, 3.5625, 3.390625, 3.546875, 3.515625, 3.421875, 3.453125, 3.5, 3.453125, 3.59375, 3.59375, 3.484375, 3.625, 3.5625, 3.46875, 3.546875, 3.40625, 3.5625, 3.421875, 3.3125, 3.578125, 3.46875, 3.5625, 3.46875, 3.515625, 3.671875, 3.34375, 3.4375, 3.640625, 3.546875, 3.40625, 3.421875, 3.6875, 3.484375, 3.3125, 3.5, 3.421875, 3.46875, 3.484375, 3.625, 3.484375, 3.40625, 3.515625, 3.546875, 3.640625, 3.59375, 3.40625, 3.40625, 3.484375, 3.390625, 3.546875, 3.46875, 3.53125, 3.5625, 3.5625, 3.578125, 3.53125, 3.546875, 3.4375, 3.421875, 3.625, 3.46875, 3.5, 3.484375, 3.484375, 3.484375, 3.4375, 3.5625, 3.578125, 3.484375, 3.28125, 3.484375, 3.4375, 3.53125, 3.546875, 3.390625, 3.59375, 3.3125, 3.578125, 3.421875, 3.46875, 3.65625, 3.5625, 3.46875, 3.46875, 3.421875, 3.390625, 3.4375, 3.40625, 3.453125, 3.515625, 3.5625, 3.625, 3.390625, 3.453125, 3.53125, 3.5, 3.625, 3.5625, 3.546875, 3.453125, 3.484375, 3.34375, 3.5, 3.5, 3.453125, 3.625, 3.53125, 3.390625, 3.546875, 3.453125, 3.65625, 3.53125, 3.46875, 3.4375, 3.328125, 3.5625, 3.390625, 3.59375, 3.625, 3.59375, 3.578125, 3.484375, 3.609375, 3.3125, 3.484375, 3.5, 3.5, 3.4375, 3.484375, 3.46875, 3.5, 3.59375, 3.421875, 3.421875, 3.3125, 3.53125, 3.4375, 3.46875, 3.46875, 3.5, 3.5, 3.46875, 3.46875, 3.484375, 3.28125, 3.484375, 3.46875, 3.515625, 3.359375, 3.484375, 3.484375, 3.34375, 3.328125, 3.578125, 3.40625, 3.28125, 3.28125, 3.453125, 3.515625, 3.5, 3.5625, 3.5, 3.46875, 3.4375, 3.40625, 3.453125, 3.359375, 3.421875, 3.5625, 3.375, 3.28125, 3.28125, 3.359375, 3.3125, 3.59375, 3.40625, 3.359375, 3.671875, 3.5, 3.484375, 3.484375, 3.46875, 3.46875, 3.390625, 3.390625, 3.359375, 3.265625, 3.296875, 3.4375, 3.515625, 3.46875, 3.53125, 3.4375, 3.546875, 3.546875, 3.640625, 3.390625, 3.359375, 3.5, 3.421875, 3.375, 3.5, 3.46875, 3.484375, 3.390625, 3.421875, 3.359375, 3.265625, 3.515625, 3.359375, 3.578125, 3.515625, 3.546875, 3.40625, 3.484375, 3.34375, 3.40625, 3.46875, 3.21875, 3.5, 3.515625, 3.453125, 3.484375, 3.53125, 3.453125, 3.390625, 3.484375, 3.46875, 3.3125, 3.484375, 3.25, 3.46875, 3.4375, 3.34375, 3.390625, 3.484375, 3.3125, 3.40625, 3.4375, 3.375, 3.453125, 3.5, 3.4375, 3.390625, 3.4375, 3.234375, 3.546875, 3.09375, 3.546875, 3.4375, 3.484375, 3.375, 3.40625, 3.34375, 3.328125, 3.515625, 3.421875, 3.46875, 3.515625, 3.40625, 3.515625, 3.34375, 3.421875, 3.3125, 3.265625, 3.4375, 3.1875, 3.390625, 3.5, 3.4375, 3.40625, 3.390625, 3.34375, 3.421875, 3.25, 3.328125, 3.5625, 3.484375, 3.328125, 3.4375, 3.453125, 3.515625, 3.28125, 3.59375, 3.546875, 3.15625, 3.375, 3.375, 3.40625, 3.5, 3.390625, 3.390625, 3.609375, 3.515625, 3.1875, 3.328125, 3.40625, 3.359375, 3.359375, 3.484375, 3.34375, 3.46875, 3.421875, 3.40625, 3.328125, 3.515625, 3.375, 3.46875, 3.390625, 3.375, 3.46875, 3.421875, 3.34375, 3.515625, 3.5, 3.296875, 3.34375, 3.5, 3.5, 3.34375, 3.34375, 3.46875, 3.375, 3.515625, 3.390625, 3.4375, 3.375, 3.34375, 3.578125, 3.453125, 3.40625, 3.234375, 3.375, 3.25, 3.46875, 3.34375, 3.375, 3.28125, 3.40625, 3.40625, 3.25, 3.40625, 3.390625, 3.46875, 3.390625, 3.46875, 3.140625, 3.328125, 3.375, 3.46875, 3.453125, 3.515625, 3.375, 3.4375, 3.46875, 3.46875, 3.390625, 3.359375, 3.40625, 3.203125, 3.40625, 3.359375, 3.515625, 3.390625, 3.390625, 3.4375, 3.46875, 3.34375, 3.3125, 3.375, 3.3125, 3.390625, 3.453125, 3.390625, 3.4375, 3.375, 3.390625, 3.453125, 3.453125, 3.40625, 3.4375, 3.40625, 3.46875, 3.359375, 3.359375, 3.40625, 3.453125, 3.34375, 3.234375, 3.40625, 3.4375, 3.25, 3.296875, 3.40625, 3.5, 3.4375, 3.53125, 3.3125, 3.5, 3.390625, 3.390625, 3.203125, 3.375, 3.203125, 3.25, 3.15625, 3.359375, 3.390625, 3.28125, 3.265625, 3.453125, 3.671875, 3.3125, 3.375, 3.421875, 3.40625, 3.25, 3.40625, 3.390625, 3.40625, 3.453125, 3.359375, 3.578125, 3.28125, 3.296875, 3.453125, 3.390625, 3.21875, 3.34375, 3.296875, 3.390625, 3.53125, 3.515625, 3.4375, 3.3125, 3.4375, 3.453125, 3.375, 3.515625, 3.375, 3.375, 3.4375, 3.375, 3.4375, 3.375, 3.3125, 3.328125, 3.4375, 3.171875, 3.46875, 3.296875, 3.34375, 3.390625, 3.078125, 3.296875, 3.4375, 3.234375, 3.421875, 3.34375, 3.40625, 3.328125, 3.390625, 3.09375, 3.25, 3.390625, 3.40625, 3.328125, 3.296875, 3.28125, 3.5, 3.3125, 3.421875, 3.296875, 3.40625, 3.390625, 3.359375, 3.28125, 3.328125, 3.1875, 3.3125, 3.328125, 3.453125, 3.296875, 3.34375, 3.34375, 3.40625, 3.328125, 3.390625, 3.15625, 3.328125, 3.375, 3.203125, 3.3125, 3.34375, 3.375, 3.3125, 3.234375, 3.3125, 3.28125, 3.296875, 3.4375, 3.34375, 3.390625, 3.375, 3.265625, 3.328125, 3.375, 3.234375, 3.40625, 3.21875, 3.234375, 3.21875, 3.28125, 3.25, 3.359375, 3.515625, 3.15625, 3.3125, 3.265625, 3.40625, 3.34375, 3.21875, 3.34375, 3.421875, 3.5, 3.328125, 3.234375, 3.28125, 3.15625, 3.265625, 3.328125, 3.265625, 3.3125, 3.171875, 3.328125, 3.265625, 3.28125, 3.375, 3.421875, 3.359375, 3.390625, 3.28125, 3.46875, 3.328125, 3.265625, 3.453125, 3.46875, 3.296875, 3.265625, 3.25, 3.28125, 3.484375, 3.34375, 3.265625, 3.421875, 3.390625, 3.265625, 3.28125, 3.359375, 3.125, 3.34375, 3.375, 3.328125, 3.125, 3.1875, 3.34375, 3.25, 3.328125, 3.34375, 3.296875, 3.21875, 3.296875, 3.265625, 3.359375, 3.3125, 3.203125, 3.40625, 3.28125, 3.40625, 3.375, 3.0625, 3.3125, 3.265625, 3.296875, 3.3125, 3.25, 3.3125, 3.390625, 3.265625, 3.28125, 3.34375, 3.25, 3.265625, 3.296875, 3.203125, 3.359375, 3.40625, 3.265625, 3.34375, 3.4375, 3.328125, 3.171875, 3.34375, 3.359375, 3.484375, 3.4375, 3.296875, 3.390625, 3.328125, 3.171875, 3.375, 3.203125, 3.40625, 3.296875, 3.15625, 3.25, 3.140625, 3.34375, 3.28125, 3.265625, 3.28125, 3.25, 3.34375, 3.234375, 3.34375, 3.234375, 3.234375, 3.21875, 3.15625, 3.390625, 3.28125, 3.40625, 3.203125, 3.25, 2.96875, 3.1875, 3.25, 3.296875, 3.34375, 3.234375, 3.359375, 3.15625, 3.53125, 3.21875, 3.1875, 3.265625, 3.3125, 3.109375, 3.28125, 3.28125, 3.171875, 3.25, 3.34375, 3.125, 3.265625, 3.25, 3.234375, 3.15625, 3.296875, 3.265625, 3.359375, 3.28125, 2.90625, 3.34375, 3.0, 3.1875, 3.109375, 3.25, 3.234375, 3.34375, 3.171875, 3.109375, 3.21875, 2.984375, 3.28125, 3.28125, 3.203125, 3.265625, 3.296875, 3.171875, 3.03125, 3.1875, 3.296875, 3.0, 3.09375, 3.078125, 3.15625, 2.984375, 3.0625, 3.15625, 2.921875, 3.234375, 2.921875, 3.15625, 3.21875, 3.046875, 3.265625, 3.296875, 3.234375, 3.421875, 3.3125, 3.171875, 3.15625, 3.171875, 3.21875, 3.0, 3.171875, 3.109375, 3.09375, 3.15625, 3.078125, 3.078125, 3.25, 3.265625]","[56320.0, 1752.0, 1168.0, 780.0, 912.0, 624.0, 732.0, 568.0, 536.0, 608.0, 588.0, 502.0, 536.0, 404.0, 488.0, 368.0, 356.0, 368.0, 346.0, 392.0, 380.0, 304.0, 304.0, 286.0, 324.0, 286.0, 304.0, 296.0, 304.0, 230.0, 286.0, 286.0, 223.0, 278.0, 230.0, 260.0, 230.0, 223.0, 223.0, 223.0, 223.0, 197.0, 245.0, 185.0, 191.0, 203.0, 216.0, 185.0, 209.0, 179.0, 203.0, 197.0, 216.0, 191.0, 179.0, 174.0, 216.0, 163.0, 185.0, 230.0, 185.0, 174.0, 168.0, 144.0, 153.0, 158.0, 140.0, 131.0, 131.0, 131.0, 144.0, 153.0, 153.0, 149.0, 135.0, 140.0, 131.0, 135.0, 135.0, 119.5, 144.0, 127.0, 144.0, 119.5, 135.0, 115.5, 140.0, 119.5, 131.0, 108.5, 127.0, 105.5, 115.5, 105.5, 96.0, 131.0, 112.0, 108.5, 112.0, 108.5, 105.5, 96.0, 96.0, 96.0, 96.0, 115.5, 87.5, 99.0, 108.5, 108.5, 96.0, 93.0, 93.0, 99.0, 87.5, 96.0, 99.0, 90.0, 96.0, 87.5, 105.5, 87.5, 93.0, 99.0, 87.5, 84.5, 84.5, 74.5, 74.5, 87.5, 102.0, 84.5, 84.5, 74.5, 90.0, 74.5, 90.0, 84.5, 84.5, 93.0, 84.5, 72.5, 70.0, 93.0, 82.0, 82.0, 82.0, 72.5, 84.5, 74.5, 72.5, 70.0, 79.5, 72.5, 79.5, 77.0, 87.5, 74.5, 82.0, 77.0, 64.0, 77.0, 74.5, 74.5, 68.0, 64.0, 77.0, 74.5, 60.0, 58.25, 70.0, 74.5, 70.0, 64.0, 60.0, 60.0, 58.25, 68.0, 70.0, 72.5, 62.0, 68.0, 56.25, 64.0, 68.0, 60.0, 62.0, 68.0, 58.25, 79.5, 72.5, 70.0, 66.0, 64.0, 72.5, 56.25, 56.25, 62.0, 62.0, 72.5, 58.25, 66.0, 58.25, 62.0, 56.25, 72.5, 72.5, 74.5, 62.0, 51.25, 66.0, 53.75, 62.0, 56.25, 52.25, 50.5, 56.25, 56.25, 64.0, 60.0, 60.0, 64.0, 58.25, 47.5, 52.25, 50.5, 62.0, 54.75, 56.25, 60.0, 50.5, 60.0, 56.25, 62.0, 58.25, 51.25, 47.5, 62.0, 58.25, 58.25, 56.25, 51.25, 58.25, 56.25, 64.0, 47.5, 56.25, 54.75, 53.75, 60.0, 48.25, 56.25, 53.0, 60.0, 50.5, 54.75, 54.75, 56.25, 49.0, 49.0, 56.25, 53.0, 51.25, 46.0, 49.0, 47.5, 58.25, 56.25, 48.25, 50.5, 58.25, 49.75, 53.0, 48.25, 56.25, 49.0, 51.25, 58.25, 52.25, 49.75, 44.0, 52.25, 48.25, 48.25, 48.25, 46.75, 52.25, 53.75, 52.25, 44.0, 45.25, 56.25, 54.75, 53.75, 52.25, 46.75, 43.25, 45.25, 48.25, 49.0, 56.25, 48.25, 53.0, 52.25, 44.5, 47.5, 48.25, 49.0, 41.25, 42.5, 42.0, 44.5, 53.0, 44.0, 49.75, 44.0, 51.25, 48.25, 47.5, 43.25, 46.0, 46.0, 53.75, 45.25, 50.5, 45.25, 52.25, 40.0, 43.25, 53.75, 42.0, 42.5, 49.0, 45.25, 44.5, 41.25, 37.5, 50.5, 49.0, 46.75, 50.5, 45.25, 52.25, 44.0, 44.5, 41.25, 41.25, 43.25, 41.25, 46.0, 43.25, 47.5, 44.0, 46.75, 45.25, 46.0, 46.75, 50.5, 46.0, 37.5, 43.25, 49.75, 49.75, 53.75, 44.0, 49.75, 40.5, 51.25, 44.0, 41.25, 46.0, 45.25, 45.25, 41.25, 38.25, 40.5, 44.0, 38.25, 46.75, 47.5, 44.5, 44.5, 46.0, 40.0, 40.5, 42.0, 42.0, 42.5, 48.25, 39.25, 40.5, 46.0, 38.75, 33.25, 37.5, 49.75, 37.5, 53.75, 39.25, 42.0, 46.75, 42.5, 42.0, 41.25, 41.25, 37.0, 42.0, 37.5, 44.0, 42.0, 38.75, 39.25, 42.5, 38.75, 42.0, 44.0, 40.5, 44.0, 42.5, 40.0, 41.25, 40.5, 43.25, 43.25, 49.0, 40.5, 43.25, 37.5, 37.5, 44.5, 40.5, 45.25, 35.75, 36.5, 42.5, 44.5, 35.25, 42.5, 41.25, 36.5, 44.5, 38.75, 44.0, 39.25, 37.5, 42.0, 35.75, 44.0, 36.5, 39.25, 44.5, 40.0, 42.5, 45.25, 44.0, 38.25, 46.0, 36.5, 38.75, 41.25, 41.25, 34.75, 42.5, 40.5, 38.25, 32.5, 38.25, 40.5, 40.5, 39.25, 35.75, 35.75, 40.5, 36.5, 38.75, 41.25, 35.25, 39.25, 40.5, 46.0, 38.25, 40.0, 40.5, 35.75, 38.75, 39.25, 37.0, 36.5, 40.0, 35.25, 40.5, 37.0, 44.5, 39.25, 35.75, 38.25, 35.75, 34.25, 33.75, 36.5, 30.625, 34.75, 34.25, 42.0, 38.25, 44.0, 38.75, 34.75, 36.5, 39.25, 40.0, 39.25, 38.75, 38.75, 44.0, 36.5, 46.0, 32.0, 35.75, 39.25, 34.25, 35.25, 42.5, 36.5, 37.0, 38.75, 41.25, 32.5, 38.75, 36.5, 35.75, 35.25, 36.5, 38.25, 37.5, 38.75, 37.0, 34.75, 38.25, 38.25, 36.5, 44.0, 35.25, 38.75, 37.5, 37.5, 37.5, 42.0, 35.25, 37.5, 39.25, 38.75, 31.125, 39.25, 32.5, 38.25, 38.25, 37.5, 36.5, 37.0, 30.625, 39.25, 34.25, 42.0, 38.25, 39.25, 40.5, 32.5, 37.0, 40.5, 41.25, 42.5, 37.0, 35.25, 34.25, 30.625, 31.125, 35.75, 37.5, 37.0, 38.75, 37.0, 38.75, 29.25, 37.0, 36.5, 40.0, 42.5, 37.0, 35.75, 40.0, 39.25, 34.75, 41.25, 32.0, 38.75, 38.75, 36.5, 38.75, 33.75, 39.25, 41.25, 37.0, 34.25, 38.75, 34.25, 30.125, 30.125, 40.5, 28.75, 35.25, 38.75, 34.75, 31.125, 31.625, 35.75, 33.25, 33.25, 34.25, 36.5, 32.0, 34.75, 31.625, 27.0, 39.25, 32.0, 34.25, 35.25, 35.25, 40.0, 38.25, 29.75, 34.75, 28.375, 31.125, 33.25, 40.5, 41.25, 35.75, 31.125, 37.0, 28.375, 39.25, 39.25, 37.5, 34.75, 35.25, 35.75, 32.5, 35.75, 38.25, 32.0, 34.25, 35.75, 35.75, 35.25, 33.25, 31.625, 40.0, 35.75, 30.625, 34.75, 33.25, 42.5, 32.0, 33.25, 35.75, 34.25, 32.0, 39.25, 30.625, 35.25, 29.75, 34.75, 33.75, 30.625, 31.625, 33.25, 31.625, 36.5, 36.5, 32.5, 37.5, 35.25, 32.0, 34.75, 30.125, 35.25, 30.625, 27.5, 35.75, 32.0, 35.25, 32.0, 33.75, 39.25, 28.375, 31.125, 38.25, 34.75, 30.125, 30.625, 40.0, 32.5, 27.5, 33.25, 30.625, 32.0, 32.5, 37.5, 32.5, 30.125, 33.75, 34.75, 38.25, 36.5, 30.125, 30.125, 32.5, 29.75, 34.75, 32.0, 34.25, 35.25, 35.25, 35.75, 34.25, 34.75, 31.125, 30.625, 37.5, 32.0, 33.25, 32.5, 32.5, 32.5, 31.125, 35.25, 35.75, 32.5, 26.625, 32.5, 31.125, 34.25, 34.75, 29.75, 36.5, 27.5, 35.75, 30.625, 32.0, 38.75, 35.25, 32.0, 32.0, 30.625, 29.75, 31.125, 30.125, 31.625, 33.75, 35.25, 37.5, 29.75, 31.625, 34.25, 33.25, 37.5, 35.25, 34.75, 31.625, 32.5, 28.375, 33.25, 33.25, 31.625, 37.5, 34.25, 29.75, 34.75, 31.625, 38.75, 34.25, 32.0, 31.125, 27.875, 35.25, 29.75, 36.5, 37.5, 36.5, 35.75, 32.5, 37.0, 27.5, 32.5, 33.25, 33.25, 31.125, 32.5, 32.0, 33.25, 36.5, 30.625, 30.625, 27.5, 34.25, 31.125, 32.0, 32.0, 33.25, 33.25, 32.0, 32.0, 32.5, 26.625, 32.5, 32.0, 33.75, 28.75, 32.5, 32.5, 28.375, 27.875, 35.75, 30.125, 26.625, 26.625, 31.625, 33.75, 33.25, 35.25, 33.25, 32.0, 31.125, 30.125, 31.625, 28.75, 30.625, 35.25, 29.25, 26.625, 26.625, 28.75, 27.5, 36.5, 30.125, 28.75, 39.25, 33.25, 32.5, 32.5, 32.0, 32.0, 29.75, 29.75, 28.75, 26.25, 27.0, 31.125, 33.75, 32.0, 34.25, 31.125, 34.75, 34.75, 38.25, 29.75, 28.75, 33.25, 30.625, 29.25, 33.25, 32.0, 32.5, 29.75, 30.625, 28.75, 26.25, 33.75, 28.75, 35.75, 33.75, 34.75, 30.125, 32.5, 28.375, 30.125, 32.0, 25.0, 33.25, 33.75, 31.625, 32.5, 34.25, 31.625, 29.75, 32.5, 32.0, 27.5, 32.5, 25.75, 32.0, 31.125, 28.375, 29.75, 32.5, 27.5, 30.125, 31.125, 29.25, 31.625, 33.25, 31.125, 29.75, 31.125, 25.375, 34.75, 22.125, 34.75, 31.125, 32.5, 29.25, 30.125, 28.375, 27.875, 33.75, 30.625, 32.0, 33.75, 30.125, 33.75, 28.375, 30.625, 27.5, 26.25, 31.125, 24.25, 29.75, 33.25, 31.125, 30.125, 29.75, 28.375, 30.625, 25.75, 27.875, 35.25, 32.5, 27.875, 31.125, 31.625, 33.75, 26.625, 36.5, 34.75, 23.5, 29.25, 29.25, 30.125, 33.25, 29.75, 29.75, 37.0, 33.75, 24.25, 27.875, 30.125, 28.75, 28.75, 32.5, 28.375, 32.0, 30.625, 30.125, 27.875, 33.75, 29.25, 32.0, 29.75, 29.25, 32.0, 30.625, 28.375, 33.75, 33.25, 27.0, 28.375, 33.25, 33.25, 28.375, 28.375, 32.0, 29.25, 33.75, 29.75, 31.125, 29.25, 28.375, 35.75, 31.625, 30.125, 25.375, 29.25, 25.75, 32.0, 28.375, 29.25, 26.625, 30.125, 30.125, 25.75, 30.125, 29.75, 32.0, 29.75, 32.0, 23.125, 27.875, 29.25, 32.0, 31.625, 33.75, 29.25, 31.125, 32.0, 32.0, 29.75, 28.75, 30.125, 24.625, 30.125, 28.75, 33.75, 29.75, 29.75, 31.125, 32.0, 28.375, 27.5, 29.25, 27.5, 29.75, 31.625, 29.75, 31.125, 29.25, 29.75, 31.625, 31.625, 30.125, 31.125, 30.125, 32.0, 28.75, 28.75, 30.125, 31.625, 28.375, 25.375, 30.125, 31.125, 25.75, 27.0, 30.125, 33.25, 31.125, 34.25, 27.5, 33.25, 29.75, 29.75, 24.625, 29.25, 24.625, 25.75, 23.5, 28.75, 29.75, 26.625, 26.25, 31.625, 39.25, 27.5, 29.25, 30.625, 30.125, 25.75, 30.125, 29.75, 30.125, 31.625, 28.75, 35.75, 26.625, 27.0, 31.625, 29.75, 25.0, 28.375, 27.0, 29.75, 34.25, 33.75, 31.125, 27.5, 31.125, 31.625, 29.25, 33.75, 29.25, 29.25, 31.125, 29.25, 31.125, 29.25, 27.5, 27.875, 31.125, 23.875, 32.0, 27.0, 28.375, 29.75, 21.75, 27.0, 31.125, 25.375, 30.625, 28.375, 30.125, 27.875, 29.75, 22.125, 25.75, 29.75, 30.125, 27.875, 27.0, 26.625, 33.25, 27.5, 30.625, 27.0, 30.125, 29.75, 28.75, 26.625, 27.875, 24.25, 27.5, 27.875, 31.625, 27.0, 28.375, 28.375, 30.125, 27.875, 29.75, 23.5, 27.875, 29.25, 24.625, 27.5, 28.375, 29.25, 27.5, 25.375, 27.5, 26.625, 27.0, 31.125, 28.375, 29.75, 29.25, 26.25, 27.875, 29.25, 25.375, 30.125, 25.0, 25.375, 25.0, 26.625, 25.75, 28.75, 33.75, 23.5, 27.5, 26.25, 30.125, 28.375, 25.0, 28.375, 30.625, 33.25, 27.875, 25.375, 26.625, 23.5, 26.25, 27.875, 26.25, 27.5, 23.875, 27.875, 26.25, 26.625, 29.25, 30.625, 28.75, 29.75, 26.625, 32.0, 27.875, 26.25, 31.625, 32.0, 27.0, 26.25, 25.75, 26.625, 32.5, 28.375, 26.25, 30.625, 29.75, 26.25, 26.625, 28.75, 22.75, 28.375, 29.25, 27.875, 22.75, 24.25, 28.375, 25.75, 27.875, 28.375, 27.0, 25.0, 27.0, 26.25, 28.75, 27.5, 24.625, 30.125, 26.625, 30.125, 29.25, 21.375, 27.5, 26.25, 27.0, 27.5, 25.75, 27.5, 29.75, 26.25, 26.625, 28.375, 25.75, 26.25, 27.0, 24.625, 28.75, 30.125, 26.25, 28.375, 31.125, 27.875, 23.875, 28.375, 28.75, 32.5, 31.125, 27.0, 29.75, 27.875, 23.875, 29.25, 24.625, 30.125, 27.0, 23.5, 25.75, 23.125, 28.375, 26.625, 26.25, 26.625, 25.75, 28.375, 25.375, 28.375, 25.375, 25.375, 25.0, 23.5, 29.75, 26.625, 30.125, 24.625, 25.75, 19.5, 24.25, 25.75, 27.0, 28.375, 25.375, 28.75, 23.5, 34.25, 25.0, 24.25, 26.25, 27.5, 22.375, 26.625, 26.625, 23.875, 25.75, 28.375, 22.75, 26.25, 25.75, 25.375, 23.5, 27.0, 26.25, 28.75, 26.625, 18.25, 28.375, 20.125, 24.25, 22.375, 25.75, 25.375, 28.375, 23.875, 22.375, 25.0, 19.75, 26.625, 26.625, 24.625, 26.25, 27.0, 23.875, 20.75, 24.25, 27.0, 20.125, 22.125, 21.75, 23.5, 19.75, 21.375, 23.5, 18.625, 25.375, 18.625, 23.5, 25.0, 21.0, 26.25, 27.0, 25.375, 30.625, 27.5, 23.875, 23.5, 23.875, 25.0, 20.125, 23.875, 22.375, 22.125, 23.5, 21.75, 21.75, 25.75, 26.25]","[10.9375, 7.6875, 7.3125, 6.96875, 7.125, 6.84375, 6.9375, 6.71875, 6.6875, 6.8125, 6.78125, 6.65625, 6.75, 6.46875, 6.625, 6.4375, 6.34375, 6.4375, 6.375, 6.46875, 6.46875, 6.25, 6.25, 6.1875, 6.28125, 6.1875, 6.28125, 6.25, 6.3125, 6.03125, 6.21875, 6.25, 6.03125, 6.1875, 6.0625, 6.15625, 6.0, 6.0, 6.03125, 6.0, 6.03125, 5.9375, 6.0625, 5.875, 5.875, 5.96875, 5.96875, 5.90625, 5.96875, 5.875, 5.90625, 5.90625, 6.0, 5.90625, 5.875, 5.8125, 6.0, 5.71875, 5.875, 6.0, 5.84375, 5.78125, 5.8125, 5.65625, 5.71875, 5.71875, 5.625, 5.59375, 5.5625, 5.5625, 5.65625, 5.75, 5.6875, 5.71875, 5.59375, 5.6875, 5.5625, 5.65625, 5.65625, 5.5, 5.65625, 5.5625, 5.6875, 5.5, 5.625, 5.46875, 5.625, 5.5625, 5.59375, 5.40625, 5.59375, 5.375, 5.46875, 5.4375, 5.34375, 5.5625, 5.46875, 5.4375, 5.4375, 5.5, 5.40625, 5.34375, 5.28125, 5.34375, 5.375, 5.5, 5.25, 5.34375, 5.4375, 5.40625, 5.375, 5.3125, 5.28125, 5.375, 5.25, 5.34375, 5.34375, 5.28125, 5.40625, 5.25, 5.40625, 5.34375, 5.3125, 5.40625, 5.3125, 5.25, 5.25, 5.15625, 5.15625, 5.3125, 5.40625, 5.25, 5.25, 5.1875, 5.3125, 5.15625, 5.3125, 5.21875, 5.21875, 5.34375, 5.28125, 5.09375, 5.0625, 5.34375, 5.25, 5.25, 5.21875, 5.09375, 5.25, 5.15625, 5.125, 5.125, 5.1875, 5.09375, 5.1875, 5.1875, 5.28125, 5.15625, 5.25, 5.1875, 5.0, 5.21875, 5.15625, 5.09375, 5.03125, 5.0, 5.15625, 5.15625, 4.9375, 4.9375, 5.09375, 5.15625, 5.0625, 5.0625, 5.0, 5.0, 4.90625, 5.03125, 5.0625, 5.125, 5.03125, 5.09375, 4.96875, 5.03125, 5.125, 4.96875, 5.0, 5.125, 4.875, 5.21875, 5.125, 5.125, 5.125, 5.0625, 5.125, 4.9375, 4.96875, 4.9375, 5.0, 5.125, 4.90625, 5.0625, 4.96875, 5.0, 4.96875, 5.125, 5.1875, 5.1875, 5.0625, 4.84375, 5.03125, 4.90625, 5.0, 4.9375, 4.84375, 4.8125, 4.9375, 4.90625, 5.0, 4.96875, 4.9375, 5.03125, 5.0, 4.8125, 4.875, 4.90625, 5.03125, 4.9375, 4.9375, 5.0, 4.8125, 5.03125, 4.90625, 5.03125, 4.96875, 4.84375, 4.78125, 4.9375, 4.90625, 4.9375, 4.9375, 4.875, 4.96875, 4.90625, 5.03125, 4.875, 4.9375, 4.9375, 4.84375, 4.96875, 4.78125, 4.90625, 4.875, 5.0, 4.78125, 4.90625, 4.875, 4.9375, 4.875, 4.8125, 4.9375, 4.875, 4.84375, 4.78125, 4.8125, 4.78125, 4.96875, 4.9375, 4.8125, 4.8125, 4.9375, 4.8125, 4.84375, 4.8125, 4.90625, 4.8125, 4.90625, 4.96875, 4.84375, 4.875, 4.71875, 4.875, 4.78125, 4.8125, 4.8125, 4.75, 4.875, 4.90625, 4.875, 4.65625, 4.71875, 4.96875, 4.90625, 4.90625, 4.90625, 4.8125, 4.6875, 4.78125, 4.8125, 4.8125, 4.96875, 4.8125, 4.875, 4.84375, 4.75, 4.75, 4.78125, 4.84375, 4.625, 4.6875, 4.71875, 4.75, 4.84375, 4.75, 4.84375, 4.6875, 4.875, 4.78125, 4.8125, 4.6875, 4.8125, 4.8125, 4.875, 4.75, 4.84375, 4.71875, 4.96875, 4.6875, 4.71875, 4.875, 4.6875, 4.625, 4.8125, 4.75, 4.71875, 4.625, 4.59375, 4.84375, 4.84375, 4.8125, 4.84375, 4.71875, 4.875, 4.71875, 4.6875, 4.625, 4.71875, 4.6875, 4.65625, 4.75, 4.71875, 4.78125, 4.71875, 4.78125, 4.75, 4.78125, 4.78125, 4.84375, 4.75, 4.59375, 4.6875, 4.84375, 4.8125, 4.875, 4.71875, 4.8125, 4.625, 4.875, 4.71875, 4.59375, 4.75, 4.71875, 4.71875, 4.6875, 4.5625, 4.625, 4.71875, 4.59375, 4.78125, 4.75, 4.78125, 4.75, 4.8125, 4.6875, 4.75, 4.75, 4.65625, 4.6875, 4.78125, 4.6875, 4.6875, 4.71875, 4.59375, 4.5, 4.625, 4.8125, 4.5625, 4.875, 4.65625, 4.71875, 4.78125, 4.71875, 4.75, 4.71875, 4.6875, 4.5625, 4.75, 4.59375, 4.78125, 4.71875, 4.625, 4.65625, 4.75, 4.65625, 4.6875, 4.6875, 4.6875, 4.71875, 4.6875, 4.6875, 4.65625, 4.625, 4.75, 4.6875, 4.90625, 4.6875, 4.75, 4.5625, 4.625, 4.8125, 4.65625, 4.75, 4.5625, 4.59375, 4.71875, 4.75, 4.5625, 4.71875, 4.71875, 4.59375, 4.71875, 4.625, 4.78125, 4.6875, 4.625, 4.78125, 4.5, 4.71875, 4.625, 4.625, 4.75, 4.65625, 4.71875, 4.78125, 4.71875, 4.65625, 4.78125, 4.5625, 4.625, 4.71875, 4.6875, 4.5625, 4.71875, 4.6875, 4.625, 4.5, 4.6875, 4.625, 4.625, 4.6875, 4.5625, 4.5625, 4.625, 4.59375, 4.59375, 4.6875, 4.53125, 4.65625, 4.625, 4.75, 4.65625, 4.71875, 4.625, 4.59375, 4.625, 4.71875, 4.5625, 4.53125, 4.6875, 4.46875, 4.71875, 4.625, 4.71875, 4.59375, 4.59375, 4.625, 4.5625, 4.5, 4.46875, 4.59375, 4.40625, 4.5625, 4.53125, 4.6875, 4.65625, 4.75, 4.6875, 4.5, 4.5625, 4.6875, 4.65625, 4.65625, 4.65625, 4.65625, 4.78125, 4.53125, 4.78125, 4.5, 4.53125, 4.625, 4.53125, 4.59375, 4.65625, 4.53125, 4.65625, 4.65625, 4.6875, 4.46875, 4.65625, 4.5625, 4.59375, 4.59375, 4.625, 4.65625, 4.59375, 4.625, 4.59375, 4.5625, 4.625, 4.71875, 4.59375, 4.75, 4.59375, 4.65625, 4.59375, 4.625, 4.625, 4.6875, 4.59375, 4.65625, 4.65625, 4.59375, 4.5, 4.65625, 4.53125, 4.59375, 4.625, 4.625, 4.625, 4.65625, 4.46875, 4.625, 4.46875, 4.71875, 4.625, 4.6875, 4.6875, 4.5, 4.5625, 4.6875, 4.6875, 4.8125, 4.625, 4.53125, 4.53125, 4.46875, 4.40625, 4.53125, 4.5625, 4.59375, 4.625, 4.5625, 4.6875, 4.40625, 4.59375, 4.5625, 4.6875, 4.71875, 4.625, 4.5625, 4.75, 4.65625, 4.5625, 4.65625, 4.53125, 4.65625, 4.65625, 4.59375, 4.6875, 4.5625, 4.65625, 4.6875, 4.5625, 4.5, 4.65625, 4.5625, 4.4375, 4.40625, 4.6875, 4.40625, 4.625, 4.625, 4.5625, 4.40625, 4.5, 4.5625, 4.4375, 4.5, 4.53125, 4.5625, 4.53125, 4.53125, 4.4375, 4.3125, 4.59375, 4.53125, 4.5625, 4.53125, 4.53125, 4.71875, 4.625, 4.46875, 4.5, 4.28125, 4.40625, 4.5, 4.6875, 4.75, 4.5, 4.46875, 4.625, 4.40625, 4.6875, 4.6875, 4.625, 4.53125, 4.5, 4.5625, 4.46875, 4.59375, 4.625, 4.46875, 4.5, 4.5625, 4.625, 4.59375, 4.5, 4.5, 4.6875, 4.5625, 4.46875, 4.5625, 4.5625, 4.71875, 4.375, 4.5, 4.59375, 4.5, 4.46875, 4.65625, 4.4375, 4.5625, 4.40625, 4.53125, 4.59375, 4.46875, 4.46875, 4.53125, 4.4375, 4.6875, 4.5625, 4.5, 4.625, 4.59375, 4.53125, 4.53125, 4.4375, 4.53125, 4.4375, 4.375, 4.53125, 4.46875, 4.5, 4.46875, 4.5, 4.65625, 4.34375, 4.46875, 4.625, 4.53125, 4.40625, 4.4375, 4.65625, 4.4375, 4.34375, 4.5, 4.40625, 4.46875, 4.53125, 4.65625, 4.5, 4.46875, 4.5625, 4.5, 4.625, 4.5625, 4.40625, 4.4375, 4.5, 4.34375, 4.59375, 4.4375, 4.53125, 4.5625, 4.625, 4.59375, 4.59375, 4.5, 4.46875, 4.4375, 4.625, 4.5, 4.4375, 4.5, 4.5, 4.46875, 4.46875, 4.5625, 4.59375, 4.46875, 4.28125, 4.46875, 4.4375, 4.53125, 4.53125, 4.375, 4.5625, 4.375, 4.5625, 4.4375, 4.46875, 4.65625, 4.53125, 4.46875, 4.46875, 4.46875, 4.4375, 4.375, 4.4375, 4.46875, 4.53125, 4.5625, 4.59375, 4.4375, 4.4375, 4.5625, 4.46875, 4.625, 4.53125, 4.625, 4.4375, 4.53125, 4.375, 4.5, 4.46875, 4.40625, 4.625, 4.53125, 4.40625, 4.5, 4.4375, 4.625, 4.5625, 4.5, 4.46875, 4.40625, 4.5625, 4.40625, 4.59375, 4.59375, 4.5625, 4.59375, 4.4375, 4.59375, 4.375, 4.5, 4.5, 4.5625, 4.46875, 4.5, 4.46875, 4.5, 4.53125, 4.40625, 4.4375, 4.375, 4.53125, 4.4375, 4.4375, 4.5, 4.53125, 4.5625, 4.4375, 4.46875, 4.5, 4.3125, 4.46875, 4.5, 4.5, 4.34375, 4.5625, 4.5, 4.34375, 4.28125, 4.5625, 4.375, 4.3125, 4.3125, 4.4375, 4.5625, 4.46875, 4.5625, 4.5, 4.46875, 4.4375, 4.46875, 4.53125, 4.40625, 4.4375, 4.5625, 4.46875, 4.3125, 4.34375, 4.34375, 4.375, 4.59375, 4.4375, 4.34375, 4.65625, 4.46875, 4.46875, 4.5, 4.53125, 4.4375, 4.46875, 4.46875, 4.40625, 4.3125, 4.34375, 4.4375, 4.53125, 4.5, 4.5, 4.46875, 4.5625, 4.53125, 4.625, 4.375, 4.34375, 4.5, 4.46875, 4.4375, 4.46875, 4.5, 4.46875, 4.46875, 4.46875, 4.40625, 4.3125, 4.53125, 4.4375, 4.625, 4.5625, 4.5625, 4.40625, 4.53125, 4.34375, 4.4375, 4.46875, 4.3125, 4.46875, 4.5, 4.4375, 4.4375, 4.5625, 4.4375, 4.46875, 4.40625, 4.4375, 4.375, 4.5, 4.3125, 4.5625, 4.40625, 4.375, 4.40625, 4.46875, 4.28125, 4.34375, 4.5, 4.40625, 4.46875, 4.5, 4.46875, 4.46875, 4.4375, 4.28125, 4.625, 4.09375, 4.53125, 4.4375, 4.5, 4.5, 4.4375, 4.40625, 4.4375, 4.53125, 4.40625, 4.5, 4.53125, 4.46875, 4.5625, 4.4375, 4.4375, 4.3125, 4.375, 4.46875, 4.25, 4.4375, 4.53125, 4.4375, 4.4375, 4.375, 4.375, 4.5, 4.28125, 4.375, 4.53125, 4.5, 4.40625, 4.4375, 4.46875, 4.5, 4.34375, 4.59375, 4.5625, 4.25, 4.4375, 4.4375, 4.5, 4.46875, 4.40625, 4.4375, 4.59375, 4.53125, 4.28125, 4.375, 4.40625, 4.40625, 4.40625, 4.46875, 4.375, 4.4375, 4.4375, 4.4375, 4.375, 4.53125, 4.40625, 4.46875, 4.4375, 4.40625, 4.4375, 4.375, 4.3125, 4.5, 4.5625, 4.3125, 4.375, 4.5, 4.5, 4.34375, 4.34375, 4.46875, 4.40625, 4.5625, 4.46875, 4.53125, 4.375, 4.40625, 4.5, 4.4375, 4.40625, 4.25, 4.4375, 4.28125, 4.53125, 4.4375, 4.375, 4.34375, 4.4375, 4.4375, 4.28125, 4.46875, 4.375, 4.4375, 4.46875, 4.46875, 4.21875, 4.375, 4.40625, 4.5, 4.4375, 4.53125, 4.375, 4.4375, 4.46875, 4.53125, 4.34375, 4.4375, 4.4375, 4.25, 4.46875, 4.375, 4.5625, 4.4375, 4.4375, 4.46875, 4.53125, 4.375, 4.3125, 4.375, 4.34375, 4.375, 4.5, 4.5, 4.46875, 4.40625, 4.40625, 4.46875, 4.46875, 4.46875, 4.46875, 4.40625, 4.5, 4.375, 4.40625, 4.46875, 4.46875, 4.40625, 4.28125, 4.46875, 4.4375, 4.34375, 4.375, 4.4375, 4.5625, 4.46875, 4.59375, 4.34375, 4.53125, 4.40625, 4.46875, 4.21875, 4.4375, 4.21875, 4.3125, 4.1875, 4.4375, 4.4375, 4.3125, 4.28125, 4.46875, 4.65625, 4.34375, 4.34375, 4.40625, 4.5, 4.28125, 4.40625, 4.40625, 4.46875, 4.46875, 4.46875, 4.5625, 4.3125, 4.3125, 4.46875, 4.4375, 4.21875, 4.4375, 4.3125, 4.40625, 4.53125, 4.59375, 4.4375, 4.375, 4.5, 4.5, 4.375, 4.5, 4.4375, 4.46875, 4.46875, 4.375, 4.53125, 4.375, 4.40625, 4.4375, 4.46875, 4.25, 4.46875, 4.28125, 4.375, 4.46875, 4.09375, 4.34375, 4.4375, 4.3125, 4.4375, 4.34375, 4.4375, 4.375, 4.4375, 4.1875, 4.28125, 4.4375, 4.4375, 4.40625, 4.34375, 4.375, 4.53125, 4.34375, 4.4375, 4.34375, 4.40625, 4.375, 4.4375, 4.34375, 4.34375, 4.25, 4.375, 4.40625, 4.5, 4.34375, 4.375, 4.46875, 4.46875, 4.40625, 4.4375, 4.21875, 4.34375, 4.40625, 4.1875, 4.3125, 4.375, 4.34375, 4.375, 4.3125, 4.34375, 4.3125, 4.3125, 4.46875, 4.375, 4.46875, 4.375, 4.28125, 4.40625, 4.375, 4.3125, 4.5, 4.25, 4.3125, 4.28125, 4.34375, 4.28125, 4.46875, 4.46875, 4.1875, 4.375, 4.40625, 4.4375, 4.375, 4.21875, 4.40625, 4.46875, 4.5625, 4.40625, 4.28125, 4.34375, 4.21875, 4.3125, 4.375, 4.34375, 4.375, 4.25, 4.34375, 4.375, 4.375, 4.375, 4.46875, 4.375, 4.40625, 4.25, 4.5, 4.3125, 4.34375, 4.4375, 4.375, 4.34375, 4.34375, 4.3125, 4.3125, 4.46875, 4.40625, 4.3125, 4.40625, 4.40625, 4.375, 4.34375, 4.40625, 4.1875, 4.34375, 4.40625, 4.40625, 4.1875, 4.28125, 4.40625, 4.28125, 4.4375, 4.375, 4.375, 4.21875, 4.34375, 4.34375, 4.4375, 4.375, 4.3125, 4.4375, 4.28125, 4.375, 4.40625, 4.09375, 4.34375, 4.25, 4.375, 4.375, 4.28125, 4.40625, 4.46875, 4.28125, 4.3125, 4.375, 4.25, 4.28125, 4.34375, 4.1875, 4.4375, 4.375, 4.25, 4.375, 4.5, 4.3125, 4.21875, 4.40625, 4.375, 4.53125, 4.46875, 4.3125, 4.46875, 4.375, 4.28125, 4.375, 4.3125, 4.40625, 4.3125, 4.21875, 4.34375, 4.25, 4.40625, 4.28125, 4.34375, 4.28125, 4.3125, 4.4375, 4.28125, 4.375, 4.28125, 4.28125, 4.21875, 4.21875, 4.375, 4.34375, 4.46875, 4.25, 4.28125, 4.0625, 4.28125, 4.28125, 4.375, 4.375, 4.28125, 4.4375, 4.21875, 4.53125, 4.34375, 4.25, 4.375, 4.34375, 4.21875, 4.3125, 4.375, 4.1875, 4.3125, 4.4375, 4.15625, 4.28125, 4.34375, 4.3125, 4.21875, 4.40625, 4.34375, 4.40625, 4.3125, 4.03125, 4.40625, 4.09375, 4.21875, 4.1875, 4.3125, 4.34375, 4.375, 4.21875, 4.15625, 4.21875, 4.0625, 4.34375, 4.3125, 4.28125, 4.34375, 4.28125, 4.21875, 4.0625, 4.21875, 4.375, 4.0625, 4.1875, 4.1875, 4.21875, 4.125, 4.15625, 4.1875, 3.984375, 4.34375, 4.0, 4.25, 4.25, 4.1875, 4.3125, 4.375, 4.25, 4.46875, 4.40625, 4.21875, 4.25, 4.25, 4.3125, 4.125, 4.25, 4.1875, 4.125, 4.21875, 4.15625, 4.21875, 4.28125, 4.34375]","[56320.0, 2176.0, 1504.0, 1064.0, 1248.0, 940.0, 1032.0, 828.0, 804.0, 912.0, 884.0, 780.0, 856.0, 644.0, 756.0, 624.0, 568.0, 624.0, 588.0, 644.0, 644.0, 520.0, 520.0, 488.0, 536.0, 488.0, 536.0, 520.0, 552.0, 416.0, 502.0, 520.0, 416.0, 488.0, 430.0, 472.0, 404.0, 404.0, 416.0, 404.0, 416.0, 380.0, 430.0, 356.0, 356.0, 392.0, 392.0, 368.0, 392.0, 356.0, 368.0, 368.0, 404.0, 368.0, 356.0, 334.0, 404.0, 304.0, 356.0, 404.0, 346.0, 324.0, 334.0, 286.0, 304.0, 304.0, 278.0, 270.0, 260.0, 260.0, 286.0, 314.0, 296.0, 304.0, 270.0, 296.0, 260.0, 286.0, 286.0, 245.0, 286.0, 260.0, 296.0, 245.0, 278.0, 237.0, 278.0, 260.0, 270.0, 223.0, 270.0, 216.0, 237.0, 230.0, 209.0, 260.0, 237.0, 230.0, 230.0, 245.0, 223.0, 209.0, 197.0, 209.0, 216.0, 245.0, 191.0, 209.0, 230.0, 223.0, 216.0, 203.0, 197.0, 216.0, 191.0, 209.0, 209.0, 197.0, 223.0, 191.0, 223.0, 209.0, 203.0, 223.0, 203.0, 191.0, 191.0, 174.0, 174.0, 203.0, 223.0, 191.0, 191.0, 179.0, 203.0, 174.0, 203.0, 185.0, 185.0, 209.0, 197.0, 163.0, 158.0, 209.0, 191.0, 191.0, 185.0, 163.0, 191.0, 174.0, 168.0, 168.0, 179.0, 163.0, 179.0, 179.0, 197.0, 174.0, 191.0, 179.0, 149.0, 185.0, 174.0, 163.0, 153.0, 149.0, 174.0, 174.0, 140.0, 140.0, 163.0, 174.0, 158.0, 158.0, 149.0, 149.0, 135.0, 153.0, 158.0, 168.0, 153.0, 163.0, 144.0, 153.0, 168.0, 144.0, 149.0, 168.0, 131.0, 185.0, 168.0, 168.0, 168.0, 158.0, 168.0, 140.0, 144.0, 140.0, 149.0, 168.0, 135.0, 158.0, 144.0, 149.0, 144.0, 168.0, 179.0, 179.0, 158.0, 127.0, 153.0, 135.0, 149.0, 140.0, 127.0, 123.0, 140.0, 135.0, 149.0, 144.0, 140.0, 153.0, 149.0, 123.0, 131.0, 135.0, 153.0, 140.0, 140.0, 149.0, 123.0, 153.0, 135.0, 153.0, 144.0, 127.0, 119.5, 140.0, 135.0, 140.0, 140.0, 131.0, 144.0, 135.0, 153.0, 131.0, 140.0, 140.0, 127.0, 144.0, 119.5, 135.0, 131.0, 149.0, 119.5, 135.0, 131.0, 140.0, 131.0, 123.0, 140.0, 131.0, 127.0, 119.5, 123.0, 119.5, 144.0, 140.0, 123.0, 123.0, 140.0, 123.0, 127.0, 123.0, 135.0, 123.0, 135.0, 144.0, 127.0, 131.0, 112.0, 131.0, 119.5, 123.0, 123.0, 115.5, 131.0, 135.0, 131.0, 105.5, 112.0, 144.0, 135.0, 135.0, 135.0, 123.0, 108.5, 119.5, 123.0, 123.0, 144.0, 123.0, 131.0, 127.0, 115.5, 115.5, 119.5, 127.0, 102.0, 108.5, 112.0, 115.5, 127.0, 115.5, 127.0, 108.5, 131.0, 119.5, 123.0, 108.5, 123.0, 123.0, 131.0, 115.5, 127.0, 112.0, 144.0, 108.5, 112.0, 131.0, 108.5, 102.0, 123.0, 115.5, 112.0, 102.0, 99.0, 127.0, 127.0, 123.0, 127.0, 112.0, 131.0, 112.0, 108.5, 102.0, 112.0, 108.5, 105.5, 115.5, 112.0, 119.5, 112.0, 119.5, 115.5, 119.5, 119.5, 127.0, 115.5, 99.0, 108.5, 127.0, 123.0, 131.0, 112.0, 123.0, 102.0, 131.0, 112.0, 99.0, 115.5, 112.0, 112.0, 108.5, 96.0, 102.0, 112.0, 99.0, 119.5, 115.5, 119.5, 115.5, 123.0, 108.5, 115.5, 115.5, 105.5, 108.5, 119.5, 108.5, 108.5, 112.0, 99.0, 90.0, 102.0, 123.0, 96.0, 131.0, 105.5, 112.0, 119.5, 112.0, 115.5, 112.0, 108.5, 96.0, 115.5, 99.0, 119.5, 112.0, 102.0, 105.5, 115.5, 105.5, 108.5, 108.5, 108.5, 112.0, 108.5, 108.5, 105.5, 102.0, 115.5, 108.5, 135.0, 108.5, 115.5, 96.0, 102.0, 123.0, 105.5, 115.5, 96.0, 99.0, 112.0, 115.5, 96.0, 112.0, 112.0, 99.0, 112.0, 102.0, 119.5, 108.5, 102.0, 119.5, 90.0, 112.0, 102.0, 102.0, 115.5, 105.5, 112.0, 119.5, 112.0, 105.5, 119.5, 96.0, 102.0, 112.0, 108.5, 96.0, 112.0, 108.5, 102.0, 90.0, 108.5, 102.0, 102.0, 108.5, 96.0, 96.0, 102.0, 99.0, 99.0, 108.5, 93.0, 105.5, 102.0, 115.5, 105.5, 112.0, 102.0, 99.0, 102.0, 112.0, 96.0, 93.0, 108.5, 87.5, 112.0, 102.0, 112.0, 99.0, 99.0, 102.0, 96.0, 90.0, 87.5, 99.0, 82.0, 96.0, 93.0, 108.5, 105.5, 115.5, 108.5, 90.0, 96.0, 108.5, 105.5, 105.5, 105.5, 105.5, 119.5, 93.0, 119.5, 90.0, 93.0, 102.0, 93.0, 99.0, 105.5, 93.0, 105.5, 105.5, 108.5, 87.5, 105.5, 96.0, 99.0, 99.0, 102.0, 105.5, 99.0, 102.0, 99.0, 96.0, 102.0, 112.0, 99.0, 115.5, 99.0, 105.5, 99.0, 102.0, 102.0, 108.5, 99.0, 105.5, 105.5, 99.0, 90.0, 105.5, 93.0, 99.0, 102.0, 102.0, 102.0, 105.5, 87.5, 102.0, 87.5, 112.0, 102.0, 108.5, 108.5, 90.0, 96.0, 108.5, 108.5, 123.0, 102.0, 93.0, 93.0, 87.5, 82.0, 93.0, 96.0, 99.0, 102.0, 96.0, 108.5, 82.0, 99.0, 96.0, 108.5, 112.0, 102.0, 96.0, 115.5, 105.5, 96.0, 105.5, 93.0, 105.5, 105.5, 99.0, 108.5, 96.0, 105.5, 108.5, 96.0, 90.0, 105.5, 96.0, 84.5, 82.0, 108.5, 82.0, 102.0, 102.0, 96.0, 82.0, 90.0, 96.0, 84.5, 90.0, 93.0, 96.0, 93.0, 93.0, 84.5, 74.5, 99.0, 93.0, 96.0, 93.0, 93.0, 112.0, 102.0, 87.5, 90.0, 72.5, 82.0, 90.0, 108.5, 115.5, 90.0, 87.5, 102.0, 82.0, 108.5, 108.5, 102.0, 93.0, 90.0, 96.0, 87.5, 99.0, 102.0, 87.5, 90.0, 96.0, 102.0, 99.0, 90.0, 90.0, 108.5, 96.0, 87.5, 96.0, 96.0, 112.0, 79.5, 90.0, 99.0, 90.0, 87.5, 105.5, 84.5, 96.0, 82.0, 93.0, 99.0, 87.5, 87.5, 93.0, 84.5, 108.5, 96.0, 90.0, 102.0, 99.0, 93.0, 93.0, 84.5, 93.0, 84.5, 79.5, 93.0, 87.5, 90.0, 87.5, 90.0, 105.5, 77.0, 87.5, 102.0, 93.0, 82.0, 84.5, 105.5, 84.5, 77.0, 90.0, 82.0, 87.5, 93.0, 105.5, 90.0, 87.5, 96.0, 90.0, 102.0, 96.0, 82.0, 84.5, 90.0, 77.0, 99.0, 84.5, 93.0, 96.0, 102.0, 99.0, 99.0, 90.0, 87.5, 84.5, 102.0, 90.0, 84.5, 90.0, 90.0, 87.5, 87.5, 96.0, 99.0, 87.5, 72.5, 87.5, 84.5, 93.0, 93.0, 79.5, 96.0, 79.5, 96.0, 84.5, 87.5, 105.5, 93.0, 87.5, 87.5, 87.5, 84.5, 79.5, 84.5, 87.5, 93.0, 96.0, 99.0, 84.5, 84.5, 96.0, 87.5, 102.0, 93.0, 102.0, 84.5, 93.0, 79.5, 90.0, 87.5, 82.0, 102.0, 93.0, 82.0, 90.0, 84.5, 102.0, 96.0, 90.0, 87.5, 82.0, 96.0, 82.0, 99.0, 99.0, 96.0, 99.0, 84.5, 99.0, 79.5, 90.0, 90.0, 96.0, 87.5, 90.0, 87.5, 90.0, 93.0, 82.0, 84.5, 79.5, 93.0, 84.5, 84.5, 90.0, 93.0, 96.0, 84.5, 87.5, 90.0, 74.5, 87.5, 90.0, 90.0, 77.0, 96.0, 90.0, 77.0, 72.5, 96.0, 79.5, 74.5, 74.5, 84.5, 96.0, 87.5, 96.0, 90.0, 87.5, 84.5, 87.5, 93.0, 82.0, 84.5, 96.0, 87.5, 74.5, 77.0, 77.0, 79.5, 99.0, 84.5, 77.0, 105.5, 87.5, 87.5, 90.0, 93.0, 84.5, 87.5, 87.5, 82.0, 74.5, 77.0, 84.5, 93.0, 90.0, 90.0, 87.5, 96.0, 93.0, 102.0, 79.5, 77.0, 90.0, 87.5, 84.5, 87.5, 90.0, 87.5, 87.5, 87.5, 82.0, 74.5, 93.0, 84.5, 102.0, 96.0, 96.0, 82.0, 93.0, 77.0, 84.5, 87.5, 74.5, 87.5, 90.0, 84.5, 84.5, 96.0, 84.5, 87.5, 82.0, 84.5, 79.5, 90.0, 74.5, 96.0, 82.0, 79.5, 82.0, 87.5, 72.5, 77.0, 90.0, 82.0, 87.5, 90.0, 87.5, 87.5, 84.5, 72.5, 102.0, 60.0, 93.0, 84.5, 90.0, 90.0, 84.5, 82.0, 84.5, 93.0, 82.0, 90.0, 93.0, 87.5, 96.0, 84.5, 84.5, 74.5, 79.5, 87.5, 70.0, 84.5, 93.0, 84.5, 84.5, 79.5, 79.5, 90.0, 72.5, 79.5, 93.0, 90.0, 82.0, 84.5, 87.5, 90.0, 77.0, 99.0, 96.0, 70.0, 84.5, 84.5, 90.0, 87.5, 82.0, 84.5, 99.0, 93.0, 72.5, 79.5, 82.0, 82.0, 82.0, 87.5, 79.5, 84.5, 84.5, 84.5, 79.5, 93.0, 82.0, 87.5, 84.5, 82.0, 84.5, 79.5, 74.5, 90.0, 96.0, 74.5, 79.5, 90.0, 90.0, 77.0, 77.0, 87.5, 82.0, 96.0, 87.5, 93.0, 79.5, 82.0, 90.0, 84.5, 82.0, 70.0, 84.5, 72.5, 93.0, 84.5, 79.5, 77.0, 84.5, 84.5, 72.5, 87.5, 79.5, 84.5, 87.5, 87.5, 68.0, 79.5, 82.0, 90.0, 84.5, 93.0, 79.5, 84.5, 87.5, 93.0, 77.0, 84.5, 84.5, 70.0, 87.5, 79.5, 96.0, 84.5, 84.5, 87.5, 93.0, 79.5, 74.5, 79.5, 77.0, 79.5, 90.0, 90.0, 87.5, 82.0, 82.0, 87.5, 87.5, 87.5, 87.5, 82.0, 90.0, 79.5, 82.0, 87.5, 87.5, 82.0, 72.5, 87.5, 84.5, 77.0, 79.5, 84.5, 96.0, 87.5, 99.0, 77.0, 93.0, 82.0, 87.5, 68.0, 84.5, 68.0, 74.5, 66.0, 84.5, 84.5, 74.5, 72.5, 87.5, 105.5, 77.0, 77.0, 82.0, 90.0, 72.5, 82.0, 82.0, 87.5, 87.5, 87.5, 96.0, 74.5, 74.5, 87.5, 84.5, 68.0, 84.5, 74.5, 82.0, 93.0, 99.0, 84.5, 79.5, 90.0, 90.0, 79.5, 90.0, 84.5, 87.5, 87.5, 79.5, 93.0, 79.5, 82.0, 84.5, 87.5, 70.0, 87.5, 72.5, 79.5, 87.5, 60.0, 77.0, 84.5, 74.5, 84.5, 77.0, 84.5, 79.5, 84.5, 66.0, 72.5, 84.5, 84.5, 82.0, 77.0, 79.5, 93.0, 77.0, 84.5, 77.0, 82.0, 79.5, 84.5, 77.0, 77.0, 70.0, 79.5, 82.0, 90.0, 77.0, 79.5, 87.5, 87.5, 82.0, 84.5, 68.0, 77.0, 82.0, 66.0, 74.5, 79.5, 77.0, 79.5, 74.5, 77.0, 74.5, 74.5, 87.5, 79.5, 87.5, 79.5, 72.5, 82.0, 79.5, 74.5, 90.0, 70.0, 74.5, 72.5, 77.0, 72.5, 87.5, 87.5, 66.0, 79.5, 82.0, 84.5, 79.5, 68.0, 82.0, 87.5, 96.0, 82.0, 72.5, 77.0, 68.0, 74.5, 79.5, 77.0, 79.5, 70.0, 77.0, 79.5, 79.5, 79.5, 87.5, 79.5, 82.0, 70.0, 90.0, 74.5, 77.0, 84.5, 79.5, 77.0, 77.0, 74.5, 74.5, 87.5, 82.0, 74.5, 82.0, 82.0, 79.5, 77.0, 82.0, 66.0, 77.0, 82.0, 82.0, 66.0, 72.5, 82.0, 72.5, 84.5, 79.5, 79.5, 68.0, 77.0, 77.0, 84.5, 79.5, 74.5, 84.5, 72.5, 79.5, 82.0, 60.0, 77.0, 70.0, 79.5, 79.5, 72.5, 82.0, 87.5, 72.5, 74.5, 79.5, 70.0, 72.5, 77.0, 66.0, 84.5, 79.5, 70.0, 79.5, 90.0, 74.5, 68.0, 82.0, 79.5, 93.0, 87.5, 74.5, 87.5, 79.5, 72.5, 79.5, 74.5, 82.0, 74.5, 68.0, 77.0, 70.0, 82.0, 72.5, 77.0, 72.5, 74.5, 84.5, 72.5, 79.5, 72.5, 72.5, 68.0, 68.0, 79.5, 77.0, 87.5, 70.0, 72.5, 58.25, 72.5, 72.5, 79.5, 79.5, 72.5, 84.5, 68.0, 93.0, 77.0, 70.0, 79.5, 77.0, 68.0, 74.5, 79.5, 66.0, 74.5, 84.5, 64.0, 72.5, 77.0, 74.5, 68.0, 82.0, 77.0, 82.0, 74.5, 56.25, 82.0, 60.0, 68.0, 66.0, 74.5, 77.0, 79.5, 68.0, 64.0, 68.0, 58.25, 77.0, 74.5, 72.5, 77.0, 72.5, 68.0, 58.25, 68.0, 79.5, 58.25, 66.0, 66.0, 68.0, 62.0, 64.0, 66.0, 53.75, 77.0, 54.75, 70.0, 70.0, 66.0, 74.5, 79.5, 70.0, 87.5, 82.0, 68.0, 70.0, 70.0, 74.5, 62.0, 70.0, 66.0, 62.0, 68.0, 64.0, 68.0, 72.5, 77.0]","[0.0, 0.07381950318813324, 0.08424458652734756, 0.0946260392665863, 0.06956810504198074, 0.105778269469738, 0.08680747449398041, 0.09793958067893982, 0.09819237142801285, 0.09523022174835205, 0.09338239580392838, 0.11348583549261093, 0.09958966076374054, 0.10614680498838425, 0.10936371237039566, 0.10832299292087555, 0.12232058495283127, 0.11165211349725723, 0.12816666066646576, 0.10997940599918365, 0.10941261798143387, 0.11950419843196869, 0.12429124861955643, 0.12589310109615326, 0.12192822247743607, 0.11595912277698517, 0.11822742223739624, 0.11818031221628189, 0.11743871122598648, 0.11847680062055588, 0.11733260005712509, 0.12204526364803314, 0.1296626180410385, 0.12770093977451324, 0.13216860592365265, 0.10837684571743011, 0.11975850909948349, 0.13316610455513, 0.1266145557165146, 0.11175979673862457, 0.13173852860927582, 0.1319444477558136, 0.11230599135160446, 0.12852033972740173, 0.16566115617752075, 0.12672695517539978, 0.1009036973118782, 0.13386663794517517, 0.14012914896011353, 0.1363864541053772, 0.16281747817993164, 0.10276107490062714, 0.11801139265298843, 0.13525597751140594, 0.1070631593465805, 0.13155978918075562, 0.12331374734640121, 0.14757929742336273, 0.13973167538642883, 0.11912593245506287, 0.13095706701278687, 0.1297861784696579, 0.14170628786087036, 0.1547037959098816, 0.13659246265888214, 0.13991354405879974, 0.15234375, 0.16106489300727844, 0.13381685316562653, 0.13380751013755798, 0.1305524855852127, 0.1593514084815979, 0.1670379936695099, 0.12295127660036087, 0.1385478526353836, 0.10535329580307007, 0.15014682710170746, 0.14566202461719513, 0.15161308646202087, 0.14315824210643768, 0.128701850771904, 0.16892452538013458, 0.12544305622577667, 0.1645118147134781, 0.15653443336486816, 0.15054476261138916, 0.1514763981103897, 0.1625368893146515, 0.1518966257572174, 0.17046020925045013, 0.15418796241283417, 0.1683458834886551, 0.1465373933315277, 0.1495814174413681, 0.14380617439746857, 0.13111643493175507, 0.17353038489818573, 0.16159643232822418, 0.1460086852312088, 0.15205395221710205, 0.16578799486160278, 0.16580483317375183, 0.1366407573223114, 0.1716359555721283, 0.16850489377975464, 0.16500529646873474, 0.17813315987586975, 0.17355187237262726, 0.15819963812828064, 0.14282546937465668, 0.16580656170845032, 0.169770285487175, 0.16563424468040466, 0.16064368188381195, 0.1772349625825882, 0.16874930262565613, 0.14039668440818787, 0.15423302352428436, 0.1352640986442566, 0.14945727586746216, 0.15251030027866364, 0.14901305735111237, 0.19126784801483154, 0.13864192366600037, 0.19718310236930847, 0.14129458367824554, 0.13962264358997345, 0.1574794352054596, 0.1890472173690796, 0.18575885891914368, 0.16518254578113556, 0.1491326242685318, 0.1500140279531479, 0.15579628944396973, 0.14397341012954712, 0.1453831046819687, 0.18437863886356354, 0.16478927433490753, 0.17909283936023712, 0.1542724072933197, 0.15971103310585022, 0.20072221755981445, 0.1573893129825592, 0.1583811193704605, 0.15445245802402496, 0.15404292941093445, 0.1771320402622223, 0.17487409710884094, 0.1685430407524109, 0.15925267338752747, 0.18297071754932404, 0.17869684100151062, 0.1748208999633789, 0.1824532449245453, 0.16547724604606628, 0.16562150418758392, 0.17866843938827515, 0.15631452202796936, 0.1488204300403595, 0.18486090004444122, 0.18714618682861328, 0.1445189118385315, 0.157692089676857, 0.2047109454870224, 0.21161870658397675, 0.19765004515647888, 0.16183426976203918, 0.19510982930660248, 0.1797914057970047, 0.17050716280937195, 0.16454920172691345, 0.1515488475561142, 0.15638339519500732, 0.17915600538253784, 0.19350196421146393, 0.14092503488063812, 0.1928246170282364, 0.17842601239681244, 0.1698988378047943, 0.19317619502544403, 0.19082528352737427, 0.1783183515071869, 0.17307910323143005, 0.1671096384525299, 0.1658184677362442, 0.20030900835990906, 0.22254644334316254, 0.18863293528556824, 0.19870904088020325, 0.16201460361480713, 0.18152368068695068, 0.20555277168750763, 0.16388671100139618, 0.17771218717098236, 0.16715067625045776, 0.18839776515960693, 0.1787383109331131, 0.16700711846351624, 0.19105039536952972, 0.188683420419693, 0.14869308471679688, 0.16795548796653748, 0.1834004819393158, 0.18384338915348053, 0.20671014487743378, 0.21190990507602692, 0.17275020480155945, 0.2084309160709381, 0.16968652606010437, 0.2066759318113327, 0.1677519828081131, 0.2169318050146103, 0.16467979550361633, 0.19882716238498688, 0.16448941826820374, 0.18890728056430817, 0.18146438896656036, 0.17880721390247345, 0.20195947587490082, 0.21737678349018097, 0.19493252038955688, 0.19418616592884064, 0.20585620403289795, 0.21457011997699738, 0.19569450616836548, 0.19548703730106354, 0.19061017036437988, 0.19952096045017242, 0.23449234664440155, 0.19226482510566711, 0.16982586681842804, 0.18255963921546936, 0.20804813504219055, 0.1656431406736374, 0.20306555926799774, 0.2035152167081833, 0.22132201492786407, 0.15443994104862213, 0.20302662253379822, 0.1696438491344452, 0.1881353110074997, 0.2130354940891266, 0.20284360647201538, 