last_val_loss,dataset,ul2,causal_denoisers,noncausal_masking,causal_divider,s_divider,r_divider,x_divider,randomize_denoiser_settings,randomize_mask_width,no_special_tokens,alternate_denoisers,progressive_tasks,model_scale,depth,width,num_params,num_non_embedding_params,num_heads,linear_value,seed,run_num,max_epochs,max_steps,max_tokens,max_time_seconds,gpu_capacity_scalar,train_loss_causal,train_pplx_causal,train_acc_causal,train_loss_s,train_pplx_s,train_loss_r,train_pplx_r,train_loss_x,train_pplx_x,train_acc_x_causal,train_acc_r_causal,train_acc_s_causal,train_acc_x_masked,train_acc_r_masked,train_acc_s_masked,val_loss_causal,val_pplx_causal,val_acc_causal,val_loss_s,val_pplx_s,val_loss_r,val_pplx_r,val_loss_x,val_pplx_x,grad_norm,cumulative_time,tokens_seen,epoch,batch_size,seq_length,learning_rate,weight_decay
2.6796875,fineweb,false,false,false,1.0,0.0,0.0,0.0,false,false,false,false,false,28.980368741954965,43,2048,1333379115,1127309355,1,false,1600,1,1.0,1000000000,1000000000000,1000000000,1.9,"[10.9375, 7.34375, 7.125, 6.6875, 6.40625, 6.21875, 6.28125, 6.21875, 6.0625, 6.03125, 5.8125, 5.9375, 5.875, 5.65625, 5.9375, 5.71875, 5.6875, 5.40625, 5.71875, 5.375, 5.53125, 5.53125, 5.53125, 5.71875, 5.5, 5.28125, 5.40625, 5.28125, 5.34375, 5.1875, 5.34375, 5.5, 5.34375, 5.1875, 4.9375, 5.25, 5.125, 5.28125, 5.125, 4.875, 5.03125, 5.21875, 4.6875, 4.9375, 5.03125, 4.84375, 4.875, 5.09375, 4.875, 5.125, 4.90625, 4.875, 4.78125, 4.875, 4.78125, 4.65625, 4.71875, 4.8125, 4.90625, 4.71875, 4.71875, 4.4375, 4.6875, 4.625, 4.75, 4.46875, 4.53125, 4.71875, 4.5625, 4.4375, 4.59375, 4.25, 4.71875, 4.59375, 4.1875, 4.46875, 4.40625, 4.34375, 4.53125, 4.375, 4.5, 4.34375, 4.5625, 4.34375, 4.28125, 4.28125, 4.3125, 4.25, 4.1875, 4.34375, 4.40625, 4.21875, 4.1875, 4.15625, 4.28125, 4.1875, 4.3125, 4.0625, 3.96875, 4.15625, 4.28125, 4.125, 4.03125, 4.125, 3.921875, 4.125, 4.375, 3.953125, 4.125, 4.0, 4.03125, 4.03125, 4.03125, 4.03125, 3.859375, 3.984375, 3.9375, 4.125, 3.96875, 4.03125, 3.890625, 3.8125, 3.828125, 4.09375, 4.15625, 3.734375, 4.0, 3.9375, 3.953125, 3.859375, 4.125, 3.78125, 4.0, 3.890625, 3.90625, 3.765625, 3.84375, 3.765625, 3.75, 3.953125, 3.90625, 3.71875, 3.828125, 3.890625, 3.6875, 3.890625, 3.9375, 3.78125, 3.59375, 3.9375, 3.890625, 3.84375, 3.765625, 3.734375, 3.890625, 3.59375, 3.71875, 3.734375, 3.53125, 3.65625, 3.59375, 3.953125, 3.671875, 3.625, 3.796875, 3.71875, 3.640625, 3.640625, 3.703125, 3.53125, 3.609375, 3.671875, 3.59375, 3.734375, 3.515625, 3.65625, 3.640625, 3.65625, 3.671875, 3.6875, 3.5625, 3.796875, 3.6875, 3.671875, 3.421875, 3.625, 3.8125, 3.71875, 3.65625, 3.578125, 3.40625, 3.84375, 3.609375, 3.75, 3.578125, 3.65625, 3.578125, 3.75, 3.59375, 3.703125, 3.5625, 3.53125, 3.75, 3.4375, 3.71875, 3.359375, 3.4375, 3.53125, 3.75, 3.625, 3.5625, 3.59375, 3.546875, 3.578125, 3.546875, 3.515625, 3.5625, 3.5625, 3.703125, 3.453125, 3.484375, 3.453125, 3.59375, 3.546875, 3.53125, 3.609375, 3.546875, 3.390625, 3.59375, 3.65625, 3.6875, 3.5, 3.546875, 3.640625, 3.40625, 3.40625, 3.65625, 3.421875, 3.390625, 3.71875, 3.609375, 3.375, 3.484375, 3.375, 3.3125, 3.53125, 3.59375, 3.53125, 3.40625, 3.203125, 3.671875, 3.375, 3.390625, 3.421875, 3.40625, 3.53125, 3.40625, 3.3125, 3.4375, 3.453125, 3.328125, 3.546875, 3.296875, 3.34375, 3.375, 3.46875, 3.578125, 3.578125, 3.515625, 3.484375, 3.390625, 3.484375, 3.578125, 3.328125, 3.46875, 3.359375, 3.234375, 3.3125, 3.40625, 3.359375, 3.296875, 3.34375, 3.4375, 3.28125, 3.5, 3.3125, 3.34375, 3.546875, 3.359375, 3.359375, 3.28125, 3.21875, 3.359375, 3.46875, 3.390625, 3.515625, 3.546875, 3.25, 3.390625, 3.609375, 3.578125, 3.46875, 3.5, 3.3125, 3.421875, 3.4375, 3.375, 3.25, 3.296875, 3.359375, 3.46875, 3.453125, 3.4375, 3.328125, 3.109375, 3.359375, 3.359375, 3.140625, 3.25, 3.3125, 3.25, 3.234375, 3.421875, 3.265625, 3.1875, 3.375, 3.4375, 3.234375, 3.15625, 3.15625, 3.28125, 3.359375, 3.578125, 3.40625, 3.328125, 3.359375, 3.34375, 3.40625, 3.234375, 3.1875, 3.375, 3.234375, 3.3125, 3.3125, 3.328125, 3.1875, 3.140625, 3.1875, 3.453125, 3.3125, 3.140625, 3.484375, 3.3125, 3.4375, 3.328125, 3.1875, 3.421875, 3.203125, 3.421875, 3.1875, 3.390625, 3.296875, 3.265625, 3.25, 3.390625, 3.1875, 3.15625, 3.25, 3.421875, 3.421875, 3.125, 3.1875, 3.140625, 3.359375, 3.21875, 3.25, 3.3125, 3.21875, 3.0625, 3.484375, 3.234375, 3.3125, 3.4375, 3.15625, 3.28125, 3.140625, 3.203125, 3.203125, 3.34375, 3.265625, 3.125, 3.28125, 3.15625, 3.21875, 3.234375, 3.296875, 3.3125, 3.515625, 3.1875, 3.15625, 3.28125, 3.328125, 3.359375, 3.296875, 3.09375, 3.25, 3.25, 3.28125, 3.109375, 3.25, 3.40625, 3.15625, 3.140625, 3.390625, 3.34375, 3.28125, 3.203125, 3.390625, 3.125, 3.171875, 3.125, 3.390625, 3.28125, 3.3125, 3.5, 3.296875, 3.1875, 3.359375, 3.171875, 2.921875, 3.171875, 3.25, 2.984375, 3.25, 3.09375, 3.078125, 3.15625, 3.125, 3.140625, 3.234375, 3.28125, 3.171875, 3.25, 3.171875, 3.1875, 3.234375, 3.171875, 3.046875, 3.3125, 3.234375, 3.109375, 3.234375, 3.203125, 3.21875, 3.03125, 3.1875, 3.21875, 3.140625, 3.0, 3.09375, 3.046875, 3.390625, 3.078125, 3.171875, 3.078125, 3.25, 3.125, 3.109375, 3.0625, 3.203125, 3.328125, 3.109375, 3.015625, 2.953125, 3.140625, 3.265625, 3.265625, 3.15625, 3.390625, 3.25, 3.234375, 3.140625, 3.265625, 3.03125, 3.15625, 3.375, 3.1875, 3.15625, 3.25, 3.25, 3.078125, 3.125, 3.28125, 3.21875, 3.265625, 3.25, 3.125, 3.140625, 3.109375, 3.140625, 3.25, 3.375, 3.140625, 3.140625, 3.359375, 3.0625, 3.15625, 3.125, 3.140625, 3.09375, 3.5625, 3.109375, 2.953125, 3.0625, 3.0625, 2.984375, 3.109375, 2.953125, 3.171875, 3.171875, 3.21875, 3.390625, 3.171875, 3.125, 3.234375, 3.25, 3.234375, 2.96875, 3.078125, 2.953125, 3.125, 2.90625, 3.171875, 3.15625, 3.046875, 3.171875, 3.015625, 3.015625, 3.125, 3.125, 3.171875, 3.03125, 3.1875, 3.1875, 3.09375, 3.09375, 3.15625, 2.96875, 3.03125, 3.171875, 2.953125, 3.125, 3.0625, 3.125, 3.234375, 3.296875, 3.1875, 3.140625, 3.1875, 3.109375, 3.21875, 2.96875, 3.0, 3.171875, 3.0625, 3.109375, 3.125, 3.203125, 3.171875, 3.1875, 2.984375, 3.234375, 3.046875, 3.203125, 3.125, 3.21875, 3.078125, 3.09375, 3.203125, 3.078125, 3.09375, 2.890625, 3.203125, 3.09375, 3.015625, 3.109375, 2.953125, 3.203125, 3.09375, 3.109375, 2.984375, 3.234375, 3.078125, 2.9375, 3.0625, 3.046875, 3.0, 3.109375, 2.9375, 3.328125, 3.078125, 3.15625, 3.09375, 3.28125, 3.140625, 3.171875, 3.234375, 3.21875, 3.0625, 3.1875, 3.109375, 3.109375, 3.078125, 3.09375, 3.015625, 2.90625, 3.0, 3.0625, 3.1875, 3.109375, 3.03125, 2.96875, 3.015625, 3.046875, 3.015625, 3.03125, 2.921875, 2.96875, 2.953125, 3.234375, 3.125, 3.0625, 3.046875, 3.140625, 3.0625, 3.109375, 3.09375, 3.203125, 2.96875, 2.90625, 2.875, 3.09375, 3.046875, 3.078125, 3.234375, 3.0625, 3.109375, 2.984375, 3.203125, 3.265625, 2.90625, 3.15625, 3.0, 3.125, 3.125, 2.890625, 3.15625, 3.015625, 2.90625, 3.109375, 3.046875, 3.0, 2.984375, 3.046875, 3.1875, 3.265625, 3.078125, 3.03125, 3.0625, 3.078125, 2.734375, 3.3125, 3.15625, 3.109375, 2.9375, 3.09375, 3.203125, 2.90625, 3.109375, 2.921875, 2.96875, 2.96875, 2.9375, 2.90625, 3.125, 2.875, 3.078125, 3.203125, 2.765625, 3.03125, 2.984375, 3.046875, 2.953125, 2.9375, 3.234375, 3.125, 2.984375, 2.96875, 2.859375, 2.953125, 3.0625, 3.109375, 3.046875, 3.0625, 3.0625, 3.09375, 3.03125, 3.046875, 3.046875, 2.90625, 3.015625, 3.015625, 3.109375, 3.015625, 3.03125, 3.21875, 3.171875, 2.875, 3.09375, 3.125, 3.125, 3.078125, 3.078125, 3.09375, 3.109375, 2.890625, 3.109375, 3.046875, 3.078125, 3.140625, 3.03125, 2.796875, 3.0, 2.921875, 2.859375, 2.8125, 3.15625, 2.96875, 3.109375, 2.984375, 3.078125, 3.109375, 3.09375, 3.1875, 2.890625, 3.15625, 3.09375, 2.828125, 2.890625, 3.1875, 3.078125, 3.078125, 3.015625, 3.03125, 2.9375, 3.1875, 3.046875, 3.078125, 3.046875, 2.953125, 3.046875, 3.09375, 3.109375, 3.109375, 2.859375, 2.921875, 2.984375, 2.953125, 2.84375, 3.109375, 3.0625, 2.859375, 2.875, 2.859375, 2.890625, 3.046875, 3.0, 2.9375, 2.859375, 2.96875, 2.859375, 3.0625, 2.96875, 2.96875, 2.921875, 3.125, 3.03125, 2.984375, 3.140625, 2.953125, 3.171875, 3.09375, 3.0, 3.0, 2.875, 3.0, 2.984375, 3.0, 2.984375, 2.953125, 3.0, 3.03125, 3.171875, 2.96875, 2.875, 2.796875, 2.875, 2.921875, 3.015625, 2.875, 2.90625, 2.8125, 3.0, 3.0, 2.984375, 3.171875, 3.03125, 2.953125, 2.953125, 2.890625, 2.9375, 3.125, 3.078125, 3.03125, 3.046875, 2.9375, 2.984375, 2.84375, 2.96875, 3.09375, 3.03125, 3.109375, 3.125, 3.109375, 2.96875, 2.921875, 3.21875, 3.09375, 3.078125, 2.96875, 2.953125, 3.015625, 2.8125, 3.09375, 3.015625, 3.0, 2.953125, 2.984375, 2.8125, 2.859375, 3.015625, 2.875, 3.078125, 3.0, 3.046875, 2.921875, 3.09375, 2.90625, 3.0625, 2.984375, 2.84375, 2.828125, 3.125, 2.859375, 2.96875, 2.984375, 2.734375, 2.890625, 3.046875, 2.953125, 3.046875, 2.90625, 2.875, 2.859375, 2.890625, 2.75, 3.125, 3.046875, 3.125, 3.046875, 2.8125, 2.84375, 3.1875, 2.90625, 2.859375, 3.046875, 2.796875, 2.953125, 3.0, 2.921875, 2.765625, 2.84375, 2.828125, 3.046875, 2.953125, 2.921875, 2.921875, 2.859375, 3.0, 3.265625, 3.109375, 2.921875, 2.96875, 2.84375, 2.921875, 3.0, 2.921875, 2.875, 2.8125, 3.046875, 3.03125, 3.09375, 2.953125, 2.953125, 2.90625, 2.828125, 2.890625, 3.015625, 2.65625, 2.734375, 3.03125, 3.015625, 3.125, 3.015625, 2.9375, 2.65625, 2.90625, 2.96875, 2.859375, 3.109375, 2.953125, 2.578125, 2.875, 2.90625, 2.890625, 3.015625, 2.90625, 2.984375, 2.859375, 3.140625, 2.984375, 3.09375, 2.875, 2.84375, 3.015625, 3.125, 2.984375, 2.828125, 2.953125, 2.921875, 2.984375, 2.75, 3.109375, 2.828125, 2.84375, 3.046875, 2.9375, 2.96875, 3.015625, 3.015625, 2.875, 2.890625, 2.8125, 3.09375, 3.0625, 2.71875, 3.0, 2.890625, 2.890625, 3.046875, 2.984375, 3.0, 3.046875, 3.015625, 2.96875, 2.734375, 2.90625, 3.03125, 2.84375, 2.828125, 2.921875, 2.9375, 2.984375, 2.75, 2.8125, 2.953125, 2.90625, 3.125, 2.921875, 3.015625, 2.890625, 2.921875, 2.9375, 2.90625, 2.84375, 3.0, 2.859375, 3.0, 2.953125, 2.9375, 2.75, 2.84375, 2.953125, 2.75, 2.953125, 2.796875, 3.046875, 2.765625, 2.8125, 3.125, 2.9375, 3.03125, 3.015625, 2.90625, 2.984375, 3.078125, 2.734375, 2.875, 2.96875, 2.828125, 3.015625, 2.890625, 2.9375, 2.796875, 2.984375, 2.984375, 2.953125, 3.140625, 3.015625, 2.875, 2.8125, 3.0625, 2.765625, 3.03125, 2.953125, 2.9375, 2.84375, 3.03125, 2.890625, 3.109375, 3.15625, 2.828125, 2.96875, 2.890625, 2.953125, 2.78125, 3.234375, 2.796875, 2.609375, 2.75, 2.828125, 2.84375, 2.84375, 2.875, 3.078125, 3.078125, 2.859375, 3.109375, 2.9375, 2.890625, 2.890625, 2.890625, 2.90625, 3.046875, 2.78125, 3.046875, 2.875, 3.046875, 2.859375, 2.78125, 3.03125, 2.90625, 2.875, 2.921875, 2.859375, 2.875, 2.953125, 2.8125, 2.84375, 2.9375, 3.015625, 2.859375, 3.078125, 3.234375, 3.078125, 3.0, 2.8125, 2.921875, 2.84375, 2.828125, 2.90625, 2.8125, 2.84375, 2.921875, 3.078125, 2.890625, 3.015625, 3.046875, 2.734375, 2.859375, 2.9375, 2.84375, 2.828125, 2.984375, 3.09375, 2.828125, 2.6875, 2.875, 2.8125, 2.984375, 2.84375, 2.90625, 2.96875, 3.046875, 3.015625, 2.890625, 3.078125, 2.90625, 2.90625, 2.9375, 2.828125, 3.046875, 2.921875, 2.75, 2.921875, 2.984375, 2.75, 2.875, 2.8125, 2.859375, 2.8125, 2.78125, 2.96875, 2.875, 2.78125, 2.859375, 3.015625, 2.75, 2.890625, 2.984375, 2.984375, 2.890625, 3.03125, 2.953125, 2.8125, 2.78125, 3.09375, 2.921875, 3.0, 2.921875, 2.703125, 2.78125, 3.09375, 2.9375, 2.921875, 2.90625, 2.734375, 2.859375, 2.828125, 2.6875, 2.484375, 2.890625, 3.015625, 2.546875, 2.578125, 3.015625, 2.8125, 2.765625, 2.78125, 2.984375, 2.8125, 3.0625, 3.0, 2.921875, 3.015625, 2.8125, 2.828125, 2.703125, 2.953125, 2.734375, 2.90625, 3.0, 2.875, 2.90625, 2.828125, 3.109375, 2.90625, 2.859375, 3.015625, 2.734375, 2.65625, 2.9375, 2.734375, 2.625, 2.8125, 2.9375, 2.96875, 2.96875, 2.734375, 2.953125, 3.109375, 2.6875, 2.703125, 2.8125, 2.921875, 2.96875, 2.78125, 2.8125, 2.859375, 2.9375, 2.796875, 2.90625, 2.828125, 2.703125, 2.78125, 2.890625, 2.734375, 2.8125, 3.0, 2.625, 3.03125, 2.8125, 2.796875, 2.75, 2.6875, 2.796875, 2.84375, 2.703125, 2.875, 2.875, 2.78125, 2.828125, 2.828125, 2.9375, 2.765625, 2.765625, 2.8125, 2.796875, 2.640625, 2.875, 2.859375, 2.859375, 2.78125, 2.8125, 3.0, 2.8125, 2.8125, 2.875, 2.90625, 2.8125, 2.921875, 2.828125, 2.8125, 2.796875, 2.890625, 2.8125, 2.828125, 2.90625, 2.8125, 2.953125, 2.828125, 2.75, 2.671875, 2.890625, 2.828125, 2.765625, 2.96875, 2.75, 2.8125, 2.78125, 2.671875, 3.09375, 2.84375, 2.703125, 2.90625, 2.703125, 2.796875, 2.703125, 2.859375, 2.828125, 2.984375, 2.734375, 2.828125, 2.75, 2.921875, 2.75, 2.640625, 2.875, 2.859375, 2.84375, 2.90625, 2.75, 2.859375, 2.84375, 3.015625, 2.921875, 2.9375, 2.796875, 2.765625, 2.6875, 2.703125, 2.8125, 2.9375, 2.921875, 2.671875, 2.625, 2.734375, 2.9375, 2.8125, 2.8125, 2.984375, 2.703125, 2.796875, 2.9375, 2.796875, 2.8125, 2.734375, 2.796875, 2.71875, 3.015625, 2.890625, 2.8125, 2.75, 2.890625, 2.890625, 2.71875, 2.953125, 2.765625, 3.015625, 2.796875, 2.921875, 2.765625, 2.875, 2.984375, 2.734375, 2.546875, 2.78125, 2.734375, 2.890625, 2.765625, 2.84375, 2.890625, 3.015625, 2.671875, 2.65625, 2.75, 2.90625, 2.71875, 2.859375, 2.984375, 3.015625, 3.0625, 2.921875, 3.015625, 2.734375, 2.84375, 2.875, 2.59375, 2.6875, 2.921875, 2.828125, 2.84375, 2.78125, 2.59375, 2.890625, 2.59375, 2.796875, 2.78125, 2.96875, 2.984375, 2.796875, 2.90625, 2.921875, 2.65625, 2.84375, 2.9375, 2.90625, 2.984375, 2.484375, 2.890625, 2.75, 2.703125, 2.75, 2.703125, 2.671875, 2.96875, 2.78125, 2.828125, 2.75, 2.59375, 2.859375, 2.796875, 2.953125, 2.5625, 2.828125, 2.828125, 2.6875, 2.796875, 2.796875, 2.59375, 2.6875, 2.671875, 2.609375, 2.921875, 2.765625, 2.953125, 2.828125, 2.90625, 2.984375, 2.828125, 2.921875, 2.703125, 2.765625, 2.984375, 2.796875, 2.8125, 2.765625, 2.671875, 2.859375, 2.84375, 2.640625, 2.609375, 2.71875, 2.890625, 2.75, 2.84375, 2.703125, 2.859375, 2.78125, 2.796875, 2.8125, 2.875, 2.828125, 3.0, 2.875, 2.640625, 2.71875, 2.796875, 2.671875, 2.765625, 2.78125, 2.84375, 2.84375, 2.796875, 2.78125, 2.734375, 2.96875, 2.671875, 2.671875, 2.78125, 2.734375, 2.734375, 2.6875, 2.703125, 2.765625, 2.84375, 2.78125, 2.734375, 2.59375, 2.734375, 2.6875, 2.84375, 2.765625, 2.671875, 2.75, 2.46875, 2.75, 2.75, 2.640625, 2.828125, 2.828125, 2.53125, 2.90625, 2.765625, 2.890625, 2.796875, 2.625, 2.84375, 2.546875, 2.796875, 2.78125, 2.65625, 2.828125, 2.59375, 2.609375, 2.75, 2.859375, 2.6875, 2.84375, 2.890625, 2.75, 2.734375, 2.84375, 2.828125, 2.6875, 2.8125, 2.796875, 2.921875, 2.75, 2.734375, 2.671875, 2.859375, 2.6875, 2.640625, 2.703125, 2.640625, 2.71875, 2.671875, 2.734375, 2.796875, 2.640625, 2.84375, 2.703125, 2.734375, 2.90625, 2.71875, 2.671875, 2.84375, 2.6875, 2.75, 2.75, 2.6875, 2.734375, 2.8125, 2.953125, 2.78125, 2.640625, 2.5625, 2.8125, 2.859375, 2.953125, 2.703125, 2.890625, 2.765625, 2.625, 2.84375, 2.859375, 2.796875, 2.5, 2.625, 2.71875, 2.640625, 2.59375, 2.84375, 2.9375, 2.90625, 2.84375, 2.59375, 2.640625, 2.890625, 2.828125, 2.734375, 2.671875, 2.640625, 2.671875, 2.6875, 2.65625, 2.6875, 2.625, 2.78125, 2.8125, 2.609375, 2.703125, 2.65625, 2.8125, 2.9375, 2.765625, 2.609375, 2.796875, 2.78125, 2.828125, 2.75, 2.6875, 2.625, 2.875, 2.765625, 2.65625, 2.6875, 2.84375, 3.0, 2.796875, 2.78125, 2.796875, 2.734375, 2.6875, 2.6875, 2.625, 2.671875, 2.78125, 2.78125, 2.796875, 2.71875, 2.859375, 2.65625, 2.640625, 2.75, 2.828125, 2.6875, 2.890625, 2.71875, 2.5625, 2.609375, 2.8125, 2.671875, 2.671875, 2.78125, 2.828125, 2.75, 2.78125, 2.71875, 2.625, 2.84375, 2.703125, 2.859375, 2.8125, 2.671875, 2.78125, 2.78125, 2.84375, 2.671875, 2.75, 2.734375, 2.734375, 2.890625, 2.703125, 2.6875, 2.625, 2.90625, 2.84375, 2.59375, 2.625, 2.875, 2.6875, 2.671875, 2.75, 2.609375, 2.9375, 2.90625, 2.6875, 2.734375, 2.640625, 2.6875, 3.0, 2.640625, 2.625, 2.71875, 2.765625, 2.78125, 2.71875, 2.5625, 2.96875, 2.765625, 2.671875, 2.59375, 2.609375, 2.734375, 2.59375, 2.78125, 2.765625, 2.78125, 2.6875, 2.421875, 2.84375, 2.703125, 2.6875, 2.578125, 2.859375, 2.6875, 2.703125, 2.84375, 2.8125, 2.65625, 2.5625, 2.703125, 2.609375, 2.75, 2.859375, 2.703125, 2.859375, 2.703125, 2.859375, 2.65625, 2.703125, 2.53125, 2.640625, 2.828125, 2.78125, 2.640625, 2.84375, 2.8125, 2.484375, 2.59375, 2.65625, 2.515625, 2.75, 2.90625, 2.96875, 2.71875, 2.5, 2.671875, 2.671875, 2.765625, 2.765625, 2.65625, 2.515625, 2.625, 2.6875, 2.4375, 2.65625, 2.65625, 2.703125, 2.8125, 2.859375, 2.734375, 2.609375, 2.71875, 2.8125, 2.640625, 2.890625, 2.75, 2.65625, 2.78125, 2.6875, 2.71875, 2.640625, 2.640625, 2.640625, 2.640625, 2.53125, 2.640625, 2.625, 2.734375, 2.640625, 2.765625, 2.546875, 2.59375, 2.6875, 2.625, 2.640625, 2.625, 2.546875, 2.625, 2.671875, 2.578125, 2.578125, 2.53125]","[56320.0, 1552.0, 1248.0, 804.0, 608.0, 502.0, 536.0, 502.0, 430.0, 416.0, 334.0, 380.0, 356.0, 286.0, 380.0, 304.0, 296.0, 223.0, 304.0, 216.0, 253.0, 253.0, 253.0, 304.0, 245.0, 197.0, 223.0, 197.0, 209.0, 179.0, 209.0, 245.0, 209.0, 179.0, 140.0, 191.0, 168.0, 197.0, 168.0, 131.0, 153.0, 185.0, 108.5, 140.0, 153.0, 127.0, 131.0, 163.0, 131.0, 168.0, 135.0, 131.0, 119.5, 131.0, 119.5, 105.5, 112.0, 123.0, 135.0, 112.0, 112.0, 84.5, 108.5, 102.0, 115.5, 87.5, 93.0, 112.0, 96.0, 84.5, 99.0, 70.0, 112.0, 99.0, 66.0, 87.5, 82.0, 77.0, 93.0, 79.5, 90.0, 77.0, 96.0, 77.0, 72.5, 72.5, 74.5, 70.0, 66.0, 77.0, 82.0, 68.0, 66.0, 64.0, 72.5, 66.0, 74.5, 58.25, 53.0, 64.0, 72.5, 62.0, 56.25, 62.0, 50.5, 62.0, 79.5, 52.25, 62.0, 54.75, 56.25, 56.25, 56.25, 56.25, 47.5, 53.75, 51.25, 62.0, 53.0, 56.25, 49.0, 45.25, 46.0, 60.0, 64.0, 42.0, 54.75, 51.25, 52.25, 47.5, 62.0, 44.0, 54.75, 49.0, 49.75, 43.25, 46.75, 43.25, 42.5, 52.25, 49.75, 41.25, 46.0, 49.0, 40.0, 49.0, 51.25, 44.0, 36.5, 51.25, 49.0, 46.75, 43.25, 42.0, 49.0, 36.5, 41.25, 42.0, 34.25, 38.75, 36.5, 52.25, 39.25, 37.5, 44.5, 41.25, 38.25, 38.25, 40.5, 34.25, 37.0, 39.25, 36.5, 42.0, 33.75, 38.75, 38.25, 38.75, 39.25, 40.0, 35.25, 44.5, 40.0, 39.25, 30.625, 37.5, 45.25, 41.25, 38.75, 35.75, 30.125, 46.75, 37.0, 42.5, 35.75, 38.75, 35.75, 42.5, 36.5, 40.5, 35.25, 34.25, 42.5, 31.125, 41.25, 28.75, 31.125, 34.25, 42.5, 37.5, 35.25, 36.5, 34.75, 35.75, 34.75, 33.75, 35.25, 35.25, 40.5, 31.625, 32.5, 31.625, 36.5, 34.75, 34.25, 37.0, 34.75, 29.75, 36.5, 38.75, 40.0, 33.25, 34.75, 38.25, 30.125, 30.125, 38.75, 30.625, 29.75, 41.25, 37.0, 29.25, 32.5, 29.25, 27.5, 34.25, 36.5, 34.25, 30.125, 24.625, 39.25, 29.25, 29.75, 30.625, 30.125, 34.25, 30.125, 27.5, 31.125, 31.625, 27.875, 34.75, 27.0, 28.375, 29.25, 32.0, 35.75, 35.75, 33.75, 32.5, 29.75, 32.5, 35.75, 27.875, 32.0, 28.75, 25.375, 27.5, 30.125, 28.75, 27.0, 28.375, 31.125, 26.625, 33.25, 27.5, 28.375, 34.75, 28.75, 28.75, 26.625, 25.0, 28.75, 32.0, 29.75, 33.75, 34.75, 25.75, 29.75, 37.0, 35.75, 32.0, 33.25, 27.5, 30.625, 31.125, 29.25, 25.75, 27.0, 28.75, 32.0, 31.625, 31.125, 27.875, 22.375, 28.75, 28.75, 23.125, 25.75, 27.5, 25.75, 25.375, 30.625, 26.25, 24.25, 29.25, 31.125, 25.375, 23.5, 23.5, 26.625, 28.75, 35.75, 30.125, 27.875, 28.75, 28.375, 30.125, 25.375, 24.25, 29.25, 25.375, 27.5, 27.5, 27.875, 24.25, 23.125, 24.25, 31.625, 27.5, 23.125, 32.5, 27.5, 31.125, 27.875, 24.25, 30.625, 24.625, 30.625, 24.25, 29.75, 27.0, 26.25, 25.75, 29.75, 24.25, 23.5, 25.75, 30.625, 30.625, 22.75, 24.25, 23.125, 28.75, 25.0, 25.75, 27.5, 25.0, 21.375, 32.5, 25.375, 27.5, 31.125, 23.5, 26.625, 23.125, 24.625, 24.625, 28.375, 26.25, 22.75, 26.625, 23.5, 25.0, 25.375, 27.0, 27.5, 33.75, 24.25, 23.5, 26.625, 27.875, 28.75, 27.0, 22.125, 25.75, 25.75, 26.625, 22.375, 25.75, 30.125, 23.5, 23.125, 29.75, 28.375, 26.625, 24.625, 29.75, 22.75, 23.875, 22.75, 29.75, 26.625, 27.5, 33.25, 27.0, 24.25, 28.75, 23.875, 18.625, 23.875, 25.75, 19.75, 25.75, 22.125, 21.75, 23.5, 22.75, 23.125, 25.375, 26.625, 23.875, 25.75, 23.875, 24.25, 25.375, 23.875, 21.0, 27.5, 25.375, 22.375, 25.375, 24.625, 25.0, 20.75, 24.25, 25.0, 23.125, 20.125, 22.125, 21.0, 29.75, 21.75, 23.875, 21.75, 25.75, 22.75, 22.375, 21.375, 24.625, 27.875, 22.375, 20.375, 19.125, 23.125, 26.25, 26.25, 23.5, 29.75, 25.75, 25.375, 23.125, 26.25, 20.75, 23.5, 29.25, 24.25, 23.5, 25.75, 25.75, 21.75, 22.75, 26.625, 25.0, 26.25, 25.75, 22.75, 23.125, 22.375, 23.125, 25.75, 29.25, 23.125, 23.125, 28.75, 21.375, 23.5, 22.75, 23.125, 22.125, 35.25, 22.375, 19.125, 21.375, 21.375, 19.75, 22.375, 19.125, 23.875, 23.875, 25.0, 29.75, 23.875, 22.75, 25.375, 25.75, 25.375, 19.5, 21.75, 19.125, 22.75, 18.25, 23.875, 23.5, 21.0, 23.875, 20.375, 20.375, 22.75, 22.75, 23.875, 20.75, 24.25, 24.25, 22.125, 22.125, 23.5, 19.5, 20.75, 23.875, 19.125, 22.75, 21.375, 22.75, 25.375, 27.0, 24.25, 23.125, 24.25, 22.375, 25.0, 19.5, 20.125, 23.875, 21.375, 22.375, 22.75, 24.625, 23.875, 24.25, 19.75, 25.375, 21.0, 24.625, 22.75, 25.0, 21.75, 22.125, 24.625, 21.75, 22.125, 18.0, 24.625, 22.125, 20.375, 22.375, 19.125, 24.625, 22.125, 22.375, 19.75, 25.375, 21.75, 18.875, 21.375, 21.0, 20.125, 22.375, 18.875, 27.875, 21.75, 23.5, 22.125, 26.625, 23.125, 23.875, 25.375, 25.0, 21.375, 24.25, 22.375, 22.375, 21.75, 22.125, 20.375, 18.25, 20.125, 21.375, 24.25, 22.375, 20.75, 19.5, 20.375, 21.0, 20.375, 20.75, 18.625, 19.5, 19.125, 25.375, 22.75, 21.375, 21.0, 23.125, 21.375, 22.375, 22.125, 24.625, 19.5, 18.25, 17.75, 22.125, 21.0, 21.75, 25.375, 21.375, 22.375, 19.75, 24.625, 26.25, 18.25, 23.5, 20.125, 22.75, 22.75, 18.0, 23.5, 20.375, 18.25, 22.375, 21.0, 20.125, 19.75, 21.0, 24.25, 26.25, 21.75, 20.75, 21.375, 21.75, 15.4375, 27.5, 23.5, 22.375, 18.875, 22.125, 24.625, 18.25, 22.375, 18.625, 19.5, 19.5, 18.875, 18.25, 22.75, 17.75, 21.75, 24.625, 15.875, 20.75, 19.75, 21.0, 19.125, 18.875, 25.375, 22.75, 19.75, 19.5, 17.5, 19.125, 21.375, 22.375, 21.0, 21.375, 21.375, 22.125, 20.75, 21.0, 21.0, 18.25, 20.375, 20.375, 22.375, 20.375, 20.75, 25.0, 23.875, 17.75, 22.125, 22.75, 22.75, 21.75, 21.75, 22.125, 22.375, 18.0, 22.375, 21.0, 21.75, 23.125, 20.75, 16.375, 20.125, 18.625, 17.5, 16.625, 23.5, 19.5, 22.375, 19.75, 21.75, 22.375, 22.125, 24.25, 18.0, 23.5, 22.125, 16.875, 18.0, 24.25, 21.75, 21.75, 20.375, 20.75, 18.875, 24.25, 21.0, 21.75, 21.0, 19.125, 21.0, 22.125, 22.375, 22.375, 17.5, 18.625, 19.75, 19.125, 17.25, 22.375, 21.375, 17.5, 17.75, 17.5, 18.0, 21.0, 20.125, 18.875, 17.5, 19.5, 17.5, 21.375, 19.5, 19.5, 18.625, 22.75, 20.75, 19.75, 23.125, 19.125, 23.875, 22.125, 20.125, 20.125, 17.75, 20.125, 19.75, 20.125, 19.75, 19.125, 20.125, 20.75, 23.875, 19.5, 17.75, 16.375, 17.75, 18.625, 20.375, 17.75, 18.25, 16.625, 20.125, 20.125, 19.75, 23.875, 20.75, 19.125, 19.125, 18.0, 18.875, 22.75, 21.75, 20.75, 21.0, 18.875, 19.75, 17.25, 19.5, 22.125, 20.75, 22.375, 22.75, 22.375, 19.5, 18.625, 25.0, 22.125, 21.75, 19.5, 19.125, 20.375, 16.625, 22.125, 20.375, 20.125, 19.125, 19.75, 16.625, 17.5, 20.375, 17.75, 21.75, 20.125, 21.0, 18.625, 22.125, 18.25, 21.375, 19.75, 17.25, 16.875, 22.75, 17.5, 19.5, 19.75, 15.4375, 18.0, 21.0, 19.125, 21.0, 18.25, 17.75, 17.5, 18.0, 15.625, 22.75, 21.0, 22.75, 21.0, 16.625, 17.25, 24.25, 18.25, 17.5, 21.0, 16.375, 19.125, 20.125, 18.625, 15.875, 17.25, 16.875, 21.0, 19.125, 18.625, 18.625, 17.5, 20.125, 26.25, 22.375, 18.625, 19.5, 17.25, 18.625, 20.125, 18.625, 17.75, 16.625, 21.0, 20.75, 22.125, 19.125, 19.125, 18.25, 16.875, 18.0, 20.375, 14.25, 15.4375, 20.75, 20.375, 22.75, 20.375, 18.875, 14.25, 18.25, 19.5, 17.5, 22.375, 19.125, 13.1875, 17.75, 18.25, 18.0, 20.375, 18.25, 19.75, 17.5, 23.125, 19.75, 22.125, 17.75, 17.25, 20.375, 22.75, 19.75, 16.875, 19.125, 18.625, 19.75, 15.625, 22.375, 16.875, 17.25, 21.0, 18.875, 19.5, 20.375, 20.375, 17.75, 18.0, 16.625, 22.125, 21.375, 15.1875, 20.125, 18.0, 18.0, 21.0, 19.75, 20.125, 21.0, 20.375, 19.5, 15.4375, 18.25, 20.75, 17.25, 16.875, 18.625, 18.875, 19.75, 15.625, 16.625, 19.125, 18.25, 22.75, 18.625, 20.375, 18.0, 18.625, 18.875, 18.25, 17.25, 20.125, 17.5, 20.125, 19.125, 18.875, 15.625, 17.25, 19.125, 15.625, 19.125, 16.375, 21.0, 15.875, 16.625, 22.75, 18.875, 20.75, 20.375, 18.25, 19.75, 21.75, 15.4375, 17.75, 19.5, 16.875, 20.375, 18.0, 18.875, 16.375, 19.75, 19.75, 19.125, 23.125, 20.375, 17.75, 16.625, 21.375, 15.875, 20.75, 19.125, 18.875, 17.25, 20.75, 18.0, 22.375, 23.5, 16.875, 19.5, 18.0, 19.125, 16.125, 25.375, 16.375, 13.625, 15.625, 16.875, 17.25, 17.25, 17.75, 21.75, 21.75, 17.5, 22.375, 18.875, 18.0, 18.0, 18.0, 18.25, 21.0, 16.125, 21.0, 17.75, 21.0, 17.5, 16.125, 20.75, 18.25, 17.75, 18.625, 17.5, 17.75, 19.125, 16.625, 17.25, 18.875, 20.375, 17.5, 21.75, 25.375, 21.75, 20.125, 16.625, 18.625, 17.25, 16.875, 18.25, 16.625, 17.25, 18.625, 21.75, 18.0, 20.375, 21.0, 15.4375, 17.5, 18.875, 17.25, 16.875, 19.75, 22.125, 16.875, 14.6875, 17.75, 16.625, 19.75, 17.25, 18.25, 19.5, 21.0, 20.375, 18.0, 21.75, 18.25, 18.25, 18.875, 16.875, 21.0, 18.625, 15.625, 18.625, 19.75, 15.625, 17.75, 16.625, 17.5, 16.625, 16.125, 19.5, 17.75, 16.125, 17.5, 20.375, 15.625, 18.0, 19.75, 19.75, 18.0, 20.75, 19.125, 16.625, 16.125, 22.125, 18.625, 20.125, 18.625, 14.9375, 16.125, 22.125, 18.875, 18.625, 18.25, 15.4375, 17.5, 16.875, 14.6875, 12.0, 18.0, 20.375, 12.75, 13.1875, 20.375, 16.625, 15.875, 16.125, 19.75, 16.625, 21.375, 20.125, 18.625, 20.375, 16.625, 16.875, 14.9375, 19.125, 15.4375, 18.25, 20.125, 17.75, 18.25, 16.875, 22.375, 18.25, 17.5, 20.375, 15.4375, 14.25, 18.875, 15.4375, 13.8125, 16.625, 18.875, 19.5, 19.5, 15.4375, 19.125, 22.375, 14.6875, 14.9375, 16.625, 18.625, 19.5, 16.125, 16.625, 17.5, 18.875, 16.375, 18.25, 16.875, 14.9375, 16.125, 18.0, 15.4375, 16.625, 20.125, 13.8125, 20.75, 16.625, 16.375, 15.625, 14.6875, 16.375, 17.25, 14.9375, 17.75, 17.75, 16.125, 16.875, 16.875, 18.875, 15.875, 15.875, 16.625, 16.375, 14.0, 17.75, 17.5, 17.5, 16.125, 16.625, 20.125, 16.625, 16.625, 17.75, 18.25, 16.625, 18.625, 16.875, 16.625, 16.375, 18.0, 16.625, 16.875, 18.25, 16.625, 19.125, 16.875, 15.625, 14.5, 18.0, 16.875, 15.875, 19.5, 15.625, 16.625, 16.125, 14.5, 22.125, 17.25, 14.9375, 18.25, 14.9375, 16.375, 14.9375, 17.5, 16.875, 19.75, 15.4375, 16.875, 15.625, 18.625, 15.625, 14.0, 17.75, 17.5, 17.25, 18.25, 15.625, 17.5, 17.25, 20.375, 18.625, 18.875, 16.375, 15.875, 14.6875, 14.9375, 16.625, 18.875, 18.625, 14.5, 13.8125, 15.4375, 18.875, 16.625, 16.625, 19.75, 14.9375, 16.375, 18.875, 16.375, 16.625, 15.4375, 16.375, 15.1875, 20.375, 18.0, 16.625, 15.625, 18.0, 18.0, 15.1875, 19.125, 15.875, 20.375, 16.375, 18.625, 15.875, 17.75, 19.75, 15.4375, 12.75, 16.125, 15.4375, 18.0, 15.875, 17.25, 18.0, 20.375, 14.5, 14.25, 15.625, 18.25, 15.1875, 17.5, 19.75, 20.375, 21.375, 18.625, 20.375, 15.4375, 17.25, 17.75, 13.375, 14.6875, 18.625, 16.875, 17.25, 16.125, 13.375, 18.0, 13.375, 16.375, 16.125, 19.5, 19.75, 16.375, 18.25, 18.625, 14.25, 17.25, 18.875, 18.25, 19.75, 12.0, 18.0, 15.625, 14.9375, 15.625, 14.9375, 14.5, 19.5, 16.125, 16.875, 15.625, 13.375, 17.5, 16.375, 19.125, 13.0, 16.875, 16.875, 14.6875, 16.375, 16.375, 13.375, 14.6875, 14.5, 13.625, 18.625, 15.875, 19.125, 16.875, 18.25, 19.75, 16.875, 18.625, 14.9375, 15.875, 19.75, 16.375, 16.625, 15.875, 14.5, 17.5, 17.25, 14.0, 13.625, 15.1875, 18.0, 15.625, 17.25, 14.9375, 17.5, 16.125, 16.375, 16.625, 17.75, 16.875, 20.125, 17.75, 14.0, 15.1875, 16.375, 14.5, 15.875, 16.125, 17.25, 17.25, 16.375, 16.125, 15.4375, 19.5, 14.5, 14.5, 16.125, 15.4375, 15.4375, 14.6875, 14.9375, 15.875, 17.25, 16.125, 15.4375, 13.375, 15.4375, 14.6875, 17.25, 15.875, 14.5, 15.625, 11.8125, 15.625, 15.625, 14.0, 16.875, 16.875, 12.5625, 18.25, 15.875, 18.0, 16.375, 13.8125, 17.25, 12.75, 16.375, 16.125, 14.25, 16.875, 13.375, 13.625, 15.625, 17.5, 14.6875, 17.25, 18.0, 15.625, 15.4375, 17.25, 16.875, 14.6875, 16.625, 16.375, 18.625, 15.625, 15.4375, 14.5, 17.5, 14.6875, 14.0, 14.9375, 14.0, 15.1875, 14.5, 15.4375, 16.375, 14.0, 17.25, 14.9375, 15.4375, 18.25, 15.1875, 14.5, 17.25, 14.6875, 15.625, 15.625, 14.6875, 15.4375, 16.625, 19.125, 16.125, 14.0, 13.0, 16.625, 17.5, 19.125, 14.9375, 18.0, 15.875, 13.8125, 17.25, 17.5, 16.375, 12.1875, 13.8125, 15.1875, 14.0, 13.375, 17.25, 18.875, 18.25, 17.25, 13.375, 14.0, 18.0, 16.875, 15.4375, 14.5, 14.0, 14.5, 14.6875, 14.25, 14.6875, 13.8125, 16.125, 16.625, 13.625, 14.9375, 14.25, 16.625, 18.875, 15.875, 13.625, 16.375, 16.125, 16.875, 15.625, 14.6875, 13.8125, 17.75, 15.875, 14.25, 14.6875, 17.25, 20.125, 16.375, 16.125, 16.375, 15.4375, 14.6875, 14.6875, 13.8125, 14.5, 16.125, 16.125, 16.375, 15.1875, 17.5, 14.25, 14.0, 15.625, 16.875, 14.6875, 18.0, 15.1875, 13.0, 13.625, 16.625, 14.5, 14.5, 16.125, 16.875, 15.625, 16.125, 15.1875, 13.8125, 17.25, 14.9375, 17.5, 16.625, 14.5, 16.125, 16.125, 17.25, 14.5, 15.625, 15.4375, 15.4375, 18.0, 14.9375, 14.6875, 13.8125, 18.25, 17.25, 13.375, 13.8125, 17.75, 14.6875, 14.5, 15.625, 13.625, 18.875, 18.25, 14.6875, 15.4375, 14.0, 14.6875, 20.125, 14.0, 13.8125, 15.1875, 15.875, 16.125, 15.1875, 13.0, 19.5, 15.875, 14.5, 13.375, 13.625, 15.4375, 13.375, 16.125, 15.875, 16.125, 14.6875, 11.25, 17.25, 14.9375, 14.6875, 13.1875, 17.5, 14.6875, 14.9375, 17.25, 16.625, 14.25, 13.0, 14.9375, 13.625, 15.625, 17.5, 14.9375, 17.5, 14.9375, 17.5, 14.25, 14.9375, 12.5625, 14.0, 16.875, 16.125, 14.0, 17.25, 16.625, 12.0, 13.375, 14.25, 12.375, 15.625, 18.25, 19.5, 15.1875, 12.1875, 14.5, 14.5, 15.875, 15.875, 14.25, 12.375, 13.8125, 14.6875, 11.4375, 14.25, 14.25, 14.9375, 16.625, 17.5, 15.4375, 13.625, 15.1875, 16.625, 14.0, 18.0, 15.625, 14.25, 16.125, 14.6875, 15.1875, 14.0, 14.0, 14.0, 14.0, 12.5625, 14.0, 13.8125, 15.4375, 14.0, 15.875, 12.75, 13.375, 14.6875, 13.8125, 14.0, 13.8125, 12.75, 13.8125, 14.5, 13.1875, 13.1875, 12.5625]","[0.0, 0.05947265774011612, 0.07016601413488388, 0.087646484375, 0.08872070163488388, 0.10908203572034836, 0.08955078572034836, 0.08437500149011612, 0.10561523586511612, 0.12016601860523224, 0.14956055581569672, 0.10776367038488388, 0.12421875447034836, 0.12153320759534836, 0.12265624850988388, 0.142333984375, 0.11616211384534836, 0.14003907144069672, 0.09482421725988388, 0.11435546725988388, 0.12910155951976776, 0.12270507961511612, 0.13037109375, 0.126953125, 0.129150390625, 0.11752929538488388, 0.13198243081569672, 0.14838866889476776, 0.14047852158546448, 0.16420899331569672, 0.12841796875, 0.14023438096046448, 0.14101563394069672, 0.15166015923023224, 0.15151368081569672, 0.14243164658546448, 0.14755859971046448, 0.12871094048023224, 0.11831054836511612, 0.14462891221046448, 0.15205077826976776, 0.16240234673023224, 0.18022461235523224, 0.14453125, 0.14609375596046448, 0.16020508110523224, 0.16215820610523224, 0.13818359375, 0.17363281548023224, 0.12778320908546448, 0.13759766519069672, 0.14858399331569672, 0.16000977158546448, 0.11147461086511612, 0.138427734375, 0.18706054985523224, 0.19711914658546448, 0.16044922173023224, 0.15839843451976776, 0.15185546875, 0.150390625, 0.208984375, 0.14667968451976776, 0.17421875894069672, 0.1845703125, 0.18413086235523224, 0.20224609971046448, 0.16542969644069672, 0.18710938096046448, 0.17670898139476776, 0.14663086831569672, 0.17539063096046448, 0.159423828125, 0.15512695908546448, 0.16508789360523224, 0.17045898735523224, 0.17397461831569672, 0.20888672769069672, 0.17324219644069672, 0.15351562201976776, 0.18149414658546448, 0.18461914360523224, 0.20278321206569672, 0.20258788764476776, 0.17055664956569672, 0.21855469048023224, 0.16230468451976776, 0.18002930283546448, 0.19023437798023224, 0.1953125, 0.17475585639476776, 0.16630859673023224, 0.18471680581569672, 0.23212890326976776, 0.20380859076976776, 0.16069336235523224, 0.20805664360523224, 0.19755859673023224, 0.1923828125, 0.16635742783546448, 0.14658203721046448, 0.21494141221046448, 0.23491211235523224, 0.16733399033546448, 0.19296875596046448, 0.18979492783546448, 0.159423828125, 0.20903320610523224, 0.19550780951976776, 0.20136718451976776, 0.15737305581569672, 0.18764649331569672, 0.165771484375, 0.18525390326976776, 0.21210937201976776, 0.224365234375, 0.21284179389476776, 0.17919921875, 0.195556640625, 0.21464844048023224, 0.20478515326976776, 0.18154297769069672, 0.21254883706569672, 0.23505859076976776, 0.18295899033546448, 0.22563476860523224, 0.19682617485523224, 0.19921875, 0.14892578125, 0.23784179985523224, 0.20556640625, 0.20205079019069672, 0.17958985269069672, 0.20322266221046448, 0.212890625, 0.17880859971046448, 0.22382812201976776, 0.23691406846046448, 0.18144531548023224, 0.19501952826976776, 0.19965820014476776, 0.24082031846046448, 0.21674804389476776, 0.21513672173023224, 0.2554687559604645, 0.20659179985523224, 0.22895507514476776, 0.20097656548023224, 0.22524414956569672, 0.20698241889476776, 0.19956055283546448, 0.23447266221046448, 0.22124023735523224, 0.19365234673023224, 0.19936524331569672, 0.219970703125, 0.24746094644069672, 0.20854492485523224, 0.23110352456569672, 0.26518556475639343, 0.22622071206569672, 0.22705078125, 0.21430663764476776, 0.2236328125, 0.19428710639476776, 0.21445313096046448, 0.24726562201976776, 0.20317383110523224, 0.209716796875, 0.20229493081569672, 0.21728515625, 0.26123046875, 0.221923828125, 0.17802734673023224, 0.2158203125, 0.214599609375, 0.24770508706569672, 0.19902344048023224, 0.21865235269069672, 0.272216796875, 0.22202149033546448, 0.21484375, 0.20937500894069672, 0.25126954913139343, 0.21372070908546448, 0.22124023735523224, 0.205322265625, 0.22714844346046448, 0.21113280951976776, 0.24003906548023224, 0.27167969942092896, 0.17778320610523224, 0.23134766519069672, 0.246826171875, 0.241943359375, 0.2586425840854645, 0.23271484673023224, 0.24931640923023224, 0.20498047769069672, 0.20229493081569672, 0.25483399629592896, 0.23310546576976776, 0.22470703721046448, 0.23764649033546448, 0.22719727456569672, 0.23076172173023224, 0.23017577826976776, 0.22519531846046448, 0.19389648735523224, 0.2718261778354645, 0.22968749701976776, 0.21669922769069672, 0.21806640923023224, 0.241455078125, 0.24497070908546448, 0.22060547769069672, 0.24799804389476776, 0.24936524033546448, 0.24155274033546448, 0.20068359375, 0.22968749701976776, 0.21791993081569672, 0.20590820908546448, 0.25898438692092896, 0.22348633408546448, 0.2638183534145355, 0.219970703125, 0.2754882872104645, 0.22739258408546448, 0.18168945610523224, 0.19541016221046448, 0.2835449278354645, 0.21162109076976776, 0.273681640625, 0.26020509004592896, 0.2596191465854645, 0.18500976264476776, 0.244873046875, 0.22504882514476776, 0.2586425840854645, 0.20961914956569672, 0.15190429985523224, 0.2518554627895355, 0.228271484375, 0.23281250894069672, 0.24213866889476776, 0.20512695610523224, 0.19716797769069672, 0.20810547471046448, 0.2529296875, 0.244873046875, 0.16982422769069672, 0.23422852158546448, 0.26953125, 0.25, 0.21474610269069672, 0.22841797769069672, 0.22636719048023224, 0.23374024033546448, 0.18798828125, 0.26899415254592896, 0.27705079317092896, 0.24868164956569672, 0.21171875298023224, 0.2679687440395355, 0.219482421875, 0.25581055879592896, 0.257568359375, 0.18730469048023224, 0.211669921875, 0.18891601264476776, 0.25678712129592896, 0.24306641519069672, 0.24809570610523224, 0.26025390625, 0.21201172471046448, 0.222412109375, 0.19912110269069672, 0.22329102456569672, 0.23232422769069672, 0.29023438692092896, 0.258544921875, 0.222412109375, 0.24912109971046448, 0.21826171875, 0.22788086533546448, 0.2138671875, 0.21010743081569672, 0.23720704019069672, 0.236572265625, 0.314697265625, 0.216796875, 0.24663086235523224, 0.2693847715854645, 0.26513671875, 0.21079102158546448, 0.270751953125, 0.19428710639476776, 0.27202150225639343, 0.22333984076976776, 0.242919921875, 0.207763671875, 0.2730468809604645, 0.23544922471046448, 0.22470703721046448, 0.22207032144069672, 0.25639650225639343, 0.241455078125, 0.2574706971645355, 0.23969726264476776, 0.23417969048023224, 0.18984375894069672, 0.24814453721046448, 0.21757812798023224, 0.21484375, 0.23554687201976776, 0.2635742127895355, 0.25493165850639343, 0.2676757872104645, 0.2581543028354645, 0.30268555879592896, 0.2510742247104645, 0.23090820014476776, 0.2744140625, 0.28007814288139343, 0.230224609375, 0.21796874701976776, 0.28339844942092896, 0.2808593809604645, 0.2520996034145355, 0.204345703125, 0.21513672173023224, 0.19091796875, 0.21455077826976776, 0.19140625, 0.256591796875, 0.25615236163139343, 0.259033203125, 0.22807617485523224, 0.23964844644069672, 0.272216796875, 0.24506835639476776, 0.24711914360523224, 0.2637695372104645, 0.2554687559604645, 0.2706542909145355, 0.21259765326976776, 0.256103515625, 0.20102539658546448, 0.2562011778354645, 0.26953125, 0.20751953125, 0.23857422173023224, 0.24775390326976776, 0.17934571206569672, 0.22836914658546448, 0.21821288764476776, 0.208740234375, 0.238525390625, 0.25244140625, 0.21875, 0.22128906846046448, 0.24951171875, 0.24653320014476776, 0.223388671875, 0.234130859375, 0.28071290254592896, 0.255126953125, 0.22988282144069672, 0.24428711831569672, 0.23237304389476776, 0.23759765923023224, 0.2540039122104645, 0.23027344048023224, 0.23554687201976776, 0.20131836831569672, 0.2842773497104645, 0.250244140625, 0.20703125, 0.20927734673023224, 0.22915039956569672, 0.25507813692092896, 0.2762207090854645, 0.21157227456569672, 0.2835449278354645, 0.22846679389476776, 0.2506347596645355, 0.198974609375, 0.24790039658546448, 0.264404296875, 0.2726074159145355, 0.2710937559604645, 0.26630860567092896, 0.21308593451976776, 0.22465820610523224, 0.24604491889476776, 0.2752441465854645, 0.22299805283546448, 0.2528320252895355, 0.24184571206569672, 0.21357421576976776, 0.2533203065395355, 0.276123046875, 0.2989257872104645, 0.24868164956569672, 0.20610351860523224, 0.2626953125, 0.20395508408546448, 0.257080078125, 0.22006836533546448, 0.2637695372104645, 0.25200197100639343, 0.24248047173023224, 0.21181641519069672, 0.18388672173023224, 0.2867675721645355, 0.26240235567092896, 0.20078125596046448, 0.248291015625, 0.26152345538139343, 0.20942382514476776, 0.24560546875, 0.20502929389476776, 0.24165038764476776, 0.22832031548023224, 0.2618652284145355, 0.257568359375, 0.26020509004592896, 0.23789063096046448, 0.32426759600639343, 0.27880859375, 0.220458984375, 0.24057617783546448, 0.2921386659145355, 0.3035644590854645, 0.31743165850639343, 0.272705078125, 0.24462890625, 0.22788086533546448, 0.22314453125, 0.21186523139476776, 0.25244140625, 0.23823241889476776, 0.2506347596645355, 0.26250001788139343, 0.22504882514476776, 0.21630859375, 0.23417969048023224, 0.223876953125, 0.23749999701976776, 0.2984863221645355, 0.24179688096046448, 0.19843749701976776, 0.2528320252895355, 0.29375001788139343, 0.2674804627895355, 0.2569335997104645, 0.23466797173023224, 0.24013672769069672, 0.27314454317092896, 0.24106445908546448, 0.2638183534145355, 0.26997071504592896, 0.2508789002895355, 0.2726074159145355, 0.23032227158546448, 0.26494142413139343, 0.26752930879592896, 0.30024415254592896, 0.22929687798023224, 0.2779785096645355, 0.25629884004592896, 0.21352539956569672, 0.29560548067092896, 0.2647949159145355, 0.24555663764476776, 0.2708984315395355, 0.2545410096645355, 0.2674804627895355, 0.23154297471046448, 0.27421876788139343, 0.23579101264476776, 0.23749999701976776, 0.27460938692092896, 0.22055664658546448, 0.20444336533546448, 0.24643555283546448, 0.24106445908546448, 0.26054689288139343, 0.218994140625, 0.20014648139476776, 0.24467773735523224, 0.23110352456569672, 0.2744140625, 0.24570313096046448, 0.21005859971046448, 0.24252930283546448, 0.23637695610523224, 0.23876953125, 0.2798828184604645, 0.23686523735523224, 0.22890625894069672, 0.2605957090854645, 0.21821288764476776, 0.20634765923023224, 0.2520507872104645, 0.2584472596645355, 0.239013671875, 0.256591796875, 0.2845214903354645, 0.20522461831569672, 0.25810548663139343, 0.2713378965854645, 0.26953125, 0.2757812440395355, 0.22719727456569672, 0.27421876788139343, 0.23569336533546448, 0.23613281548023224, 0.271240234375, 0.23227539658546448, 0.25297853350639343, 0.31489259004592896, 0.2837890684604645, 0.20966796576976776, 0.25419923663139343, 0.24233399331569672, 0.22968749701976776, 0.21450196206569672, 0.270263671875, 0.26416015625, 0.24873046576976776, 0.2555175721645355, 0.26318359375, 0.2962890565395355, 0.27788087725639343, 0.24033203721046448, 0.26176759600639343, 0.20786133408546448, 0.23095703125, 0.2584472596645355, 0.25908204913139343, 0.2568359375, 0.26362305879592896, 0.23540039360523224, 0.21416015923023224, 0.26459962129592896, 0.3009277284145355, 0.21518555283546448, 0.33125001192092896, 0.26030275225639343, 0.23862305283546448, 0.252685546875, 0.20502929389476776, 0.29326173663139343, 0.25537109375, 0.24941407144069672, 0.20815430581569672, 0.21435546875, 0.219970703125, 0.23886719346046448, 0.21274414658546448, 0.2647460997104645, 0.224365234375, 0.28657227754592896, 0.2569824159145355, 0.24809570610523224, 0.22841797769069672, 0.29804688692092896, 0.26904296875, 0.29345703125, 0.19008789956569672, 0.2804199159145355, 0.2740234434604645, 0.24614258110523224, 0.2777343690395355, 0.26655274629592896, 0.22119140625, 0.204833984375, 0.20341797173023224, 0.2724609375, 0.24658203125, 0.20136718451976776, 0.31718751788139343, 0.2822265625, 0.24189452826976776, 0.22958984971046448, 0.25224611163139343, 0.24697266519069672, 0.2582031190395355, 0.31254884600639343, 0.20654296875, 0.27216798067092896, 0.31132814288139343, 0.2962890565395355, 0.23769532144069672, 0.2664550840854645, 0.23544922471046448, 0.2562011778354645, 0.22104492783546448, 0.22861328721046448, 0.25556641817092896, 0.2767089903354645, 0.21875, 0.22758789360523224, 0.22314453125, 0.24775390326976776, 0.25444337725639343, 0.30195313692092896, 0.23505859076976776, 0.21391601860523224, 0.2373046875, 0.21284179389476776, 0.276123046875, 0.2699218690395355, 0.25004884600639343, 0.29902344942092896, 0.26958009600639343, 0.28193360567092896, 0.24375000596046448, 0.23544922471046448, 0.287841796875, 0.3243652284145355, 0.27338868379592896, 0.23325195908546448, 0.23979492485523224, 0.27543947100639343, 0.2603515684604645, 0.28813478350639343, 0.31123048067092896, 0.2822265625, 0.2647949159145355, 0.256591796875, 0.23442383110523224, 0.29833984375, 0.2503418028354645, 0.29345703125, 0.24111329019069672, 0.22456054389476776, 0.2955078184604645, 0.269775390625, 0.22866211831569672, 0.2671875059604645, 0.25947266817092896, 0.2616210877895355, 0.24067382514476776, 0.2513183653354645, 0.24907226860523224, 0.2723144590854645, 0.2708984315395355, 0.30546876788139343, 0.21469727158546448, 0.32148438692092896, 0.2754882872104645, 0.2627929747104645, 0.25590822100639343, 0.24819336831569672, 0.2889648377895355, 0.30131837725639343, 0.24907226860523224, 0.2872558534145355, 0.261962890625, 0.2784667909145355, 0.3091796934604645, 0.2568359375, 0.20981445908546448, 0.26513671875, 0.24658203125, 0.2412109375, 0.2681640684604645, 0.24443359673023224, 0.19199219346046448, 0.22968749701976776, 0.23647461831569672, 0.2275390625, 0.2754882872104645, 0.24687500298023224, 0.2806640565395355, 0.24423828721046448, 0.25200197100639343, 0.25517579913139343, 0.2527832090854645, 0.2740234434604645, 0.2412109375, 0.22416992485523224, 0.3133789002895355, 0.2633300721645355, 0.23549805581569672, 0.29096680879592896, 0.26264649629592896, 0.2666992247104645, 0.3055175840854645, 0.19667969644069672, 0.25664064288139343, 0.2584472596645355, 0.28925782442092896, 0.21630859375, 0.22578124701976776, 0.27250978350639343, 0.24165038764476776, 0.24643555283546448, 0.24594727158546448, 0.2552246153354645, 0.23359374701976776, 0.26801759004592896, 0.22919921576976776, 0.27202150225639343, 0.235107421875, 0.22197265923023224, 0.281005859375, 0.242431640625, 0.25029298663139343, 0.27143555879592896, 0.27167969942092896, 0.215087890625, 0.23066405951976776, 0.215576171875, 0.2138671875, 0.2835937440395355, 0.2640624940395355, 0.254638671875, 0.2523437440395355, 0.29316407442092896, 0.28095704317092896, 0.23745118081569672, 0.27080079913139343, 0.27885743975639343, 0.24672852456569672, 0.2762695252895355, 0.28461915254592896, 0.2715820372104645, 0.27119141817092896, 0.31425783038139343, 0.28168946504592896, 0.2870117127895355, 0.3046875, 0.2880859375, 0.28569337725639343, 0.28076171875, 0.23452149331569672, 0.2655273377895355, 0.302001953125, 0.21440429985523224, 0.25517579913139343, 0.227294921875, 0.2616210877895355, 0.26567384600639343, 0.24980469048023224, 0.263671875, 0.23486328125, 0.2735839784145355, 0.2535644471645355, 0.24980469048023224, 0.2853027284145355, 0.24726562201976776, 0.24155274033546448, 0.29082033038139343, 0.27783203125, 0.24848632514476776, 0.27885743975639343, 0.278076171875, 0.23813477158546448, 0.24643555283546448, 0.23305664956569672, 0.33056640625, 0.223876953125, 0.2820800840854645, 0.25322267413139343, 0.2710937559604645, 0.28388673067092896, 0.23984375596046448, 0.277587890625, 0.30668947100639343, 0.26142579317092896, 0.3121093809604645, 0.2568359375, 0.26958009600639343, 0.27143555879592896, 0.25434571504592896, 0.23681640625, 0.26318359375, 0.281005859375, 0.2630859315395355, 0.25371095538139343, 0.298583984375, 0.28569337725639343, 0.2470703125, 0.2520507872104645, 0.24453125894069672, 0.25346681475639343, 0.24575196206569672, 0.3055175840854645, 0.28569337725639343, 0.2505859434604645, 0.2787109315395355, 0.25458985567092896, 0.2745605409145355, 0.29389649629592896, 0.2881835997104645, 0.2855468690395355, 0.2783203125, 0.20732422173023224, 0.22089843451976776, 0.2939453125, 0.2777343690395355, 0.2765136659145355, 0.3466796875, 0.2919921875, 0.27470704913139343, 0.2774902284145355, 0.29462891817092896, 0.2835937440395355, 0.26533204317092896, 0.2879882752895355, 0.32231447100639343, 0.24184571206569672, 0.2647460997104645, 0.26020509004592896, 0.30708009004592896, 0.279296875, 0.18979492783546448, 0.2811523377895355, 0.25190430879592896, 0.31865236163139343, 0.24448242783546448, 0.25957033038139343, 0.2735351622104645, 0.29682618379592896, 0.3055664002895355, 0.26323243975639343, 0.2964843809604645, 0.2772460877895355, 0.24375000596046448, 0.22944335639476776, 0.23725585639476776, 0.2672363221645355, 0.22768555581569672, 0.2654785215854645, 0.2451171875, 0.24858398735523224, 0.31293946504592896, 0.2734375, 0.2637695372104645, 0.272216796875, 0.2630859315395355, 0.221435546875, 0.27099609375, 0.23842774331569672, 0.30561524629592896, 0.31464844942092896, 0.21552734076976776, 0.25825196504592896, 0.284423828125, 0.2625488340854645, 0.201416015625, 0.20820312201976776, 0.318115234375, 0.23720704019069672, 0.231689453125, 0.2516113221645355, 0.232421875, 0.2833007872104645, 0.2972656190395355, 0.24912109971046448, 0.24213866889476776, 0.23671875894069672, 0.2706054747104645, 0.24042968451976776, 0.2518554627895355, 0.2684082090854645, 0.29926759004592896, 0.23305664956569672, 0.31059572100639343, 0.29096680879592896, 0.23095703125, 0.27978515625, 0.22084961831569672, 0.24150390923023224, 0.24770508706569672, 0.24018554389476776, 0.24936524033546448, 0.2828125059604645, 0.24423828721046448, 0.2742675840854645, 0.24794922769069672, 0.25117188692092896, 0.24418945610523224, 0.28515625, 0.26787111163139343, 0.26264649629592896, 0.25678712129592896, 0.3004394471645355, 0.270263671875, 0.27739259600639343, 0.23012696206569672, 0.3036132752895355, 0.2538085877895355, 0.2627929747104645, 0.2823730409145355, 0.22617188096046448, 0.22529296576976776, 0.215576171875, 0.337890625, 0.31718751788139343, 0.24614258110523224, 0.28413087129592896, 0.28564453125, 0.27788087725639343, 0.2772460877895355, 0.23388671875, 0.21279297769069672, 0.299072265625, 0.2508789002895355, 0.2831054627895355, 0.24165038764476776, 0.3475585877895355, 0.21782226860523224, 0.23862305283546448, 0.2920898497104645, 0.27446290850639343, 0.2623535096645355, 0.25678712129592896, 0.268798828125, 0.23588867485523224, 0.25703126192092896, 0.21499024331569672, 0.2962890565395355, 0.279296875, 0.25517579913139343, 0.26127931475639343, 0.2967285215854645, 0.2989746034145355, 0.2586914002895355, 0.287353515625, 0.2610839903354645, 0.23115234076976776, 0.2674316465854645, 0.21552734076976776, 0.26127931475639343, 0.24433593451976776, 0.27861329913139343, 0.23540039360523224, 0.3143554627895355, 0.3031249940395355, 0.2738281190395355, 0.24140624701976776, 0.313232421875, 0.2542480528354645, 0.2646484375, 0.2879882752895355, 0.28242188692092896, 0.2530273497104645, 0.237060546875, 0.25688478350639343, 0.28173828125, 0.21230469644069672, 0.2975097596645355, 0.2855468690395355, 0.28955078125, 0.23779296875, 0.24609375, 0.28178712725639343, 0.306640625, 0.22666016221046448, 0.24467773735523224, 0.2823730409145355, 0.22353516519069672, 0.27001953125, 0.28413087129592896, 0.26884767413139343, 0.23652343451976776, 0.24604491889476776, 0.23369140923023224, 0.23012696206569672, 0.20546875894069672, 0.27202150225639343, 0.23500977456569672, 0.28349611163139343, 0.28642579913139343, 0.24985352158546448, 0.2857421934604645, 0.2630859315395355, 0.2647460997104645, 0.2542968690395355, 0.255126953125, 0.29462891817092896, 0.2955078184604645, 0.2757324278354645, 0.2562499940395355, 0.28173828125, 0.27392578125, 0.27851563692092896, 0.2649902403354645, 0.23823241889476776, 0.27680665254592896, 0.24228516221046448, 0.2933593690395355, 0.32978516817092896, 0.250244140625, 0.26508790254592896, 0.24155274033546448, 0.23930664360523224, 0.2879882752895355, 0.35795900225639343, 0.2713378965854645, 0.27631837129592896, 0.24790039658546448, 0.25786134600639343, 0.26171875, 0.25532227754592896, 0.29179689288139343, 0.23251953721046448, 0.24394531548023224, 0.24960938096046448, 0.2691894471645355, 0.21884766221046448, 0.23320312798023224, 0.3358398377895355, 0.274658203125, 0.24462890625, 0.24091796576976776, 0.29692384600639343, 0.24843750894069672, 0.2606445252895355, 0.2889648377895355, 0.25166016817092896, 0.19599609076976776, 0.23422852158546448, 0.26005861163139343, 0.267822265625, 0.294677734375, 0.219970703125, 0.3214355409145355, 0.213134765625, 0.32880860567092896, 0.21660156548023224, 0.29780274629592896, 0.212158203125, 0.2923339903354645, 0.2994628846645355, 0.222900390625, 0.2630859315395355, 0.2522949278354645, 0.29497072100639343, 0.24028320610523224, 0.26362305879592896, 0.22758789360523224, 0.291748046875, 0.29326173663139343, 0.23896484076976776, 0.26347658038139343, 0.2720703184604645, 0.2786621153354645, 0.22910156846046448, 0.200927734375, 0.24399414658546448, 0.266357421875, 0.21357421576976776, 0.2650390565395355, 0.22626952826976776, 0.2892089784145355, 0.28032228350639343, 0.21220703423023224, 0.29902344942092896, 0.27739259600639343, 0.260498046875, 0.302978515625, 0.2713867127895355, 0.2613281309604645, 0.26435548067092896, 0.24238280951976776, 0.2693847715854645, 0.2421875, 0.29545900225639343, 0.25053712725639343, 0.3399414122104645, 0.22846679389476776, 0.25151368975639343, 0.30913087725639343, 0.22670899331569672, 0.268798828125, 0.3028320372104645, 0.17739258706569672, 0.19448243081569672, 0.26899415254592896, 0.27324220538139343, 0.2838378846645355, 0.2732910215854645, 0.2833496034145355, 0.3251953125, 0.28315430879592896, 0.23227539658546448, 0.250244140625, 0.27753907442092896, 0.25615236163139343, 0.2789550721645355, 0.29106447100639343, 0.2594238221645355, 0.29716798663139343, 0.25297853350639343, 0.2527832090854645, 0.24038086831569672, 0.2945312559604645, 0.3182617127895355, 0.3050781190395355, 0.25971680879592896, 0.3145507872104645, 0.20683594048023224, 0.26738283038139343, 0.30732423067092896, 0.24916993081569672, 0.21171875298023224, 0.22231446206569672, 0.26899415254592896, 0.25800782442092896, 0.27973634004592896, 0.2562499940395355, 0.2835937440395355, 0.23105469346046448, 0.262451171875, 0.285400390625, 0.23046875, 0.28974610567092896, 0.24135743081569672, 0.27587890625, 0.287353515625, 0.27900391817092896, 0.251708984375, 0.286865234375, 0.35844728350639343, 0.2898925840854645, 0.27167969942092896, 0.2591796815395355, 0.26982423663139343, 0.24848632514476776, 0.22978515923023224, 0.26220703125, 0.23149414360523224, 0.24174804985523224, 0.25566408038139343, 0.26630860567092896, 0.23388671875, 0.3060058653354645, 0.25341796875, 0.2972168028354645, 0.23793946206569672, 0.27299806475639343, 0.24418945610523224, 0.22260741889476776, 0.20253907144069672, 0.31743165850639343, 0.31303712725639343, 0.24150390923023224, 0.244384765625, 0.2642578184604645, 0.27534180879592896, 0.33818361163139343, 0.25078126788139343, 0.27607423067092896, 0.23867188394069672, 0.26220703125, 0.20224609971046448, 0.27070313692092896, 0.28984376788139343, 0.24687500298023224, 0.25288087129592896, 0.27900391817092896, 0.28291016817092896, 0.2667480409145355, 0.26806640625, 0.28901368379592896, 0.27885743975639343, 0.214599609375, 0.3243652284145355, 0.22309570014476776, 0.26953125, 0.2906250059604645, 0.28828126192092896, 0.29008790850639343, 0.290283203125, 0.25615236163139343, 0.19091796875, 0.25395509600639343, 0.2642578184604645, 0.238525390625, 0.22983399033546448, 0.2974609434604645, 0.2861328125, 0.300537109375, 0.27226564288139343, 0.2791503965854645, 0.2684570252895355, 0.27656251192092896, 0.2972656190395355, 0.336181640625, 0.308837890625, 0.24736328423023224, 0.24287109076976776, 0.3548828065395355, 0.2876953184604645, 0.27250978350639343, 0.22646485269069672, 0.25, 0.29340821504592896, 0.2503418028354645, 0.2412109375, 0.3025878965854645, 0.25517579913139343, 0.24990235269069672, 0.26030275225639343, 0.29204103350639343, 0.2745605409145355, 0.271484375, 0.27192384004592896, 0.2737793028354645, 0.28730469942092896, 0.26020509004592896, 0.29399415850639343, 0.293701171875, 0.2920898497104645, 0.22275391221046448, 0.220458984375, 0.24184571206569672, 0.24833984673023224, 0.3165527284145355, 0.30634766817092896, 0.2955078184604645, 0.22666016221046448, 0.2820800840854645, 0.28007814288139343, 0.25898438692092896, 0.2662109434604645, 0.25224611163139343, 0.2655273377895355, 0.3019042909145355, 0.31230470538139343, 0.28271484375, 0.265869140625, 0.29243165254592896, 0.32470703125, 0.25322267413139343, 0.24355469644069672, 0.27216798067092896, 0.3372558653354645, 0.23237304389476776, 0.2933593690395355, 0.2708496153354645, 0.2930664122104645, 0.29096680879592896, 0.2669433653354645, 0.2547851502895355, 0.209716796875, 0.28193360567092896, 0.30708009004592896, 0.26191407442092896, 0.307373046875, 0.3041015565395355, 0.3006835877895355, 0.2994140684604645, 0.32758790254592896, 0.2911621034145355, 0.2837890684604645, 0.25834962725639343, 0.221923828125, 0.27299806475639343, 0.23876953125, 0.23662109673023224, 0.2850585877895355, 0.3419433534145355, 0.26665040850639343, 0.26093751192092896, 0.25029298663139343, 0.2901855409145355, 0.23666992783546448, 0.28339844942092896, 0.26079103350639343, 0.2965331971645355, 0.26606446504592896, 0.2562499940395355, 0.2918945252895355, 0.23188476264476776, 0.25834962725639343, 0.2687011659145355, 0.28251954913139343, 0.30180665850639343, 0.2577148377895355, 0.30278322100639343, 0.31464844942092896, 0.2713378965854645, 0.2740234434604645, 0.2630371153354645, 0.26997071504592896, 0.21308593451976776, 0.29951173067092896, 0.25336915254592896, 0.3045898377895355, 0.2877441346645355, 0.2655273377895355, 0.31513673067092896, 0.28154298663139343, 0.27436524629592896, 0.23637695610523224, 0.24067382514476776, 0.24916993081569672, 0.274169921875, 0.28813478350639343, 0.28071290254592896, 0.22451172769069672, 0.2610839903354645, 0.2743164002895355, 0.288330078125, 0.2999023497104645, 0.34814453125, 0.2984863221645355, 0.2967285215854645, 0.22900390625, 0.27202150225639343, 0.27460938692092896, 0.3153320252895355, 0.25981447100639343, 0.242919921875, 0.27983400225639343, 0.24794922769069672, 0.24101562798023224, 0.30000001192092896, 0.30400392413139343, 0.3138183653354645, 0.26655274629592896, 0.19545899331569672, 0.278564453125, 0.27509766817092896, 0.30864259600639343, 0.2510742247104645, 0.22294922173023224, 0.25830078125, 0.34003907442092896, 0.26606446504592896, 0.29155275225639343, 0.24873046576976776, 0.29521486163139343, 0.280029296875, 0.27685546875, 0.2745117247104645, 0.24843750894069672, 0.32011720538139343, 0.25146484375, 0.2835937440395355, 0.29838868975639343, 0.20546875894069672, 0.30512696504592896, 0.19775390625, 0.28535157442092896, 0.3035644590854645, 0.32719728350639343, 0.29106447100639343, 0.29096680879592896, 0.22397461533546448, 0.31904298067092896, 0.306884765625, 0.24013672769069672, 0.3251953125, 0.3004394471645355, 0.29931640625, 0.20917968451976776, 0.3193359375, 0.28935548663139343, 0.2520507872104645, 0.24960938096046448, 0.2412109375, 0.2833007872104645, 0.27583009004592896, 0.33857423067092896, 0.2513183653354645, 0.2894531190395355, 0.27778321504592896, 0.238037109375, 0.2939453125, 0.22519531846046448, 0.3412109315395355, 0.25410157442092896, 0.23627929389476776, 0.29033204913139343, 0.285888671875, 0.24184571206569672, 0.26728516817092896, 0.25371095538139343, 0.2506347596645355, 0.2703613340854645, 0.29194337129592896, 0.31401368975639343, 0.31523439288139343, 0.2572265565395355, 0.28291016817092896, 0.32500001788139343, 0.2515625059604645, 0.30195313692092896, 0.275634765625, 0.2992187440395355, 0.2750000059604645, 0.31318360567092896, 0.338623046875, 0.2789062559604645, 0.34033203125, 0.31181642413139343, 0.3050781190395355, 0.25605469942092896, 0.291748046875, 0.270751953125, 0.23183594644069672, 0.3309570252895355, 0.22968749701976776, 0.2701171934604645, 0.26201173663139343, 0.21420899033546448, 0.3014160096645355, 0.23115234076976776, 0.30766603350639343, 0.2906250059604645, 0.29423829913139343, 0.2942871153354645, 0.30180665850639343, 0.2738281190395355, 0.317138671875, 0.25541993975639343, 0.32197266817092896, 0.2662597596645355, 0.29096680879592896, 0.249755859375, 0.29692384600639343, 0.31245118379592896, 0.2582031190395355, 0.30517578125, 0.24599610269069672, 0.22280274331569672, 0.30854493379592896, 0.286376953125, 0.3031249940395355, 0.3345703184604645, 0.29716798663139343, 0.32001954317092896, 0.21528320014476776, 0.2681640684604645, 0.21044921875, 0.28569337725639343, 0.2920898497104645, 0.21738281846046448, 0.24697266519069672, 0.34418946504592896, 0.3056640625, 0.2579101622104645, 0.25371095538139343, 0.22934570908546448, 0.2891601622104645, 0.302490234375, 0.26591798663139343, 0.33002930879592896, 0.2579101622104645, 0.3023925721645355, 0.26708984375, 0.22075195610523224, 0.2540527284145355, 0.2633300721645355, 0.333740234375, 0.30830079317092896, 0.22587890923023224, 0.333740234375, 0.23256836831569672, 0.3487304747104645, 0.2759765684604645, 0.267333984375, 0.215087890625, 0.30126953125, 0.30756837129592896, 0.2559570372104645, 0.293701171875, 0.2914062440395355, 0.272705078125, 0.2745117247104645, 0.30986329913139343, 0.239501953125, 0.2811035215854645, 0.3240722715854645, 0.29521486163139343, 0.2939453125, 0.28178712725639343, 0.23618164658546448, 0.3326660096645355, 0.29057618975639343, 0.26557618379592896, 0.27587890625, 0.2275390625, 0.25615236163139343, 0.2776855528354645, 0.26953125, 0.3324218690395355, 0.20161132514476776, 0.22348633408546448, 0.30366212129592896, 0.28154298663139343, 0.2784179747104645, 0.29082033038139343, 0.29047852754592896, 0.2691894471645355, 0.28105470538139343, 0.24106445908546448, 0.287353515625, 0.2982421815395355, 0.23378907144069672, 0.30693361163139343, 0.254150390625, 0.30292969942092896, 0.2979980409145355, 0.30839845538139343, 0.3223632872104645, 0.28471681475639343, 0.2828125059604645, 0.3099121153354645, 0.27275392413139343, 0.2777343690395355, 0.2684570252895355, 0.3058105409145355, 0.292724609375, 0.3556152284145355, 0.32377931475639343, 0.27436524629592896, 0.309326171875, 0.2750000059604645, 0.3079589903354645, 0.2671875059604645, 0.27519533038139343, 0.221435546875, 0.23847655951976776, 0.26513671875, 0.31669923663139343, 0.2667480409145355, 0.24755859375, 0.271240234375, 0.23037110269069672, 0.3221679627895355, 0.22998046875, 0.30610352754592896, 0.28583985567092896, 0.3050781190395355, 0.2574218809604645, 0.2535156309604645, 0.235107421875, 0.30375978350639343, 0.2520507872104645, 0.22734375298023224, 0.217529296875, 0.3539062440395355, 0.27031251788139343, 0.27265626192092896, 0.28515625, 0.2554687559604645, 0.29877930879592896, 0.21293945610523224, 0.3232421875, 0.2876953184604645, 0.27705079317092896, 0.26201173663139343, 0.32807618379592896, 0.27001953125, 0.30585938692092896, 0.3041015565395355, 0.2994628846645355, 0.2867187559604645, 0.2911132872104645, 0.28251954913139343, 0.22895507514476776, 0.31171876192092896, 0.30815431475639343, 0.32343751192092896, 0.2606445252895355, 0.296875, 0.30327150225639343, 0.2835449278354645, 0.3392089903354645, 0.25458985567092896, 0.3069824278354645, 0.26923829317092896, 0.2679199278354645, 0.2960449159145355, 0.25166016817092896, 0.2635742127895355, 0.3390136659145355, 0.27055665850639343, 0.22734375298023224, 0.29692384600639343, 0.2654785215854645, 0.2793945372104645, 0.3187011778354645, 0.31694337725639343, 0.23872070014476776, 0.26005861163139343, 0.31660157442092896, 0.245361328125, 0.22968749701976776, 0.27778321504592896, 0.3006835877895355, 0.28662109375, 0.3094726502895355, 0.306396484375, 0.326171875, 0.2833496034145355, 0.23222656548023224, 0.29829102754592896, 0.21591797471046448, 0.29912111163139343, 0.29399415850639343, 0.2649902403354645, 0.2699218690395355, 0.28950196504592896, 0.23681640625, 0.22358398139476776, 0.2688964903354645, 0.2997070252895355, 0.24848632514476776, 0.24208985269069672, 0.299072265625, 0.3065429627895355, 0.28657227754592896, 0.2859863340854645, 0.33940431475639343, 0.3077148497104645, 0.28154298663139343, 0.2518554627895355, 0.22216796875, 0.24086914956569672, 0.26372072100639343, 0.32905274629592896, 0.23701171576976776, 0.28105470538139343, 0.3346191346645355, 0.28959962725639343, 0.296142578125, 0.214599609375, 0.24057617783546448, 0.26948243379592896, 0.263671875, 0.292236328125, 0.2916503846645355, 0.2735839784145355, 0.23496094346046448, 0.273681640625, 0.2451171875, 0.21416015923023224, 0.24541015923023224, 0.3319335877895355, 0.2776855528354645, 0.275146484375, 0.24252930283546448, 0.24541015923023224, 0.31953126192092896, 0.3451171815395355, 0.22119140625, 0.27275392413139343, 0.2723144590854645, 0.27705079317092896, 0.30859375, 0.3338378965854645, 0.21245117485523224, 0.2796874940395355, 0.30317384004592896, 0.26362305879592896, 0.29218751192092896, 0.2820800840854645, 0.2520507872104645, 0.2764648497104645, 0.30537110567092896, 0.2987304627895355, 0.2757324278354645, 0.28706055879592896, 0.2867675721645355, 0.29106447100639343, 0.21699218451976776, 0.236083984375, 0.23334960639476776, 0.28300783038139343, 0.2831054627895355, 0.24916993081569672, 0.3211914002895355, 0.277587890625, 0.30595704913139343, 0.2815918028354645, 0.25800782442092896, 0.27802735567092896, 0.32841798663139343, 0.289306640625, 0.18315429985523224, 0.3514160215854645, 0.281494140625, 0.31171876192092896, 0.30888673663139343, 0.28925782442092896, 0.2992187440395355, 0.29291993379592896, 0.3477539122104645, 0.29853516817092896, 0.28046876192092896, 0.31464844942092896, 0.2791503965854645, 0.22563476860523224, 0.2742675840854645, 0.3211425840854645, 0.2938476502895355, 0.25439453125, 0.3990234434604645, 0.263427734375, 0.30952149629592896, 0.2978515625, 0.287353515625, 0.21611328423023224, 0.27812501788139343, 0.2763671875, 0.3199706971645355, 0.28007814288139343, 0.2826171815395355, 0.285400390625, 0.3387207090854645, 0.28837892413139343, 0.27729493379592896, 0.24770508706569672, 0.23149414360523224, 0.2939453125, 0.2583984434604645, 0.30937501788139343, 0.3174804747104645, 0.2593750059604645, 0.30415040254592896, 0.265380859375, 0.24736328423023224, 0.2518554627895355, 0.30659180879592896, 0.28496095538139343, 0.328369140625, 0.2982421815395355, 0.2646484375, 0.294677734375, 0.29365235567092896, 0.27001953125, 0.3106933534145355, 0.2660156190395355, 0.3116699159145355, 0.30952149629592896, 0.306396484375]","[11.0, 9.3125, 9.125, 9.3125, 9.3125, 9.375, 9.4375, 9.5625, 9.5625, 9.5, 9.3125, 9.875, 9.375, 9.3125, 9.5, 9.375, 9.375, 9.4375, 9.375, 9.4375, 9.5, 9.4375, 9.4375, 9.5625, 9.4375, 9.6875, 9.5625, 9.5625, 9.5, 9.5625, 9.5625, 9.6875, 9.5625, 9.5, 9.5, 9.6875, 9.625, 9.75, 9.875, 9.9375, 10.0625, 9.875, 9.625, 10.0625, 9.875, 9.875, 9.875, 9.875, 9.625, 9.625, 9.6875, 10.0, 10.0, 9.625, 9.6875, 9.9375, 9.8125, 9.9375, 9.8125, 9.6875, 9.6875, 9.8125, 9.75, 9.875, 9.9375, 9.9375, 9.6875, 9.75, 9.75, 9.875, 9.8125, 9.875, 9.8125, 9.9375, 10.125, 10.375, 9.625, 9.625, 9.625, 9.6875, 9.6875, 9.75, 9.9375, 10.0625, 10.25, 10.4375, 10.125, 10.25, 10.125, 11.0625, 10.625, 10.6875, 10.75, 10.8125, 10.25, 9.9375, 10.3125, 10.5625, 10.3125, 10.3125, 9.8125, 10.4375, 10.6875, 10.5, 10.625, 11.0, 11.0, 10.875, 10.875, 10.375, 9.9375, 10.1875, 10.625, 11.0625, 11.375, 11.5625, 10.9375, 10.625, 11.5625, 11.1875, 10.375, 10.25, 10.5625, 11.1875, 10.5625, 10.5625, 10.5625, 10.3125, 9.8125, 10.3125, 10.25, 10.375, 10.5625, 10.9375, 10.9375, 10.4375, 11.3125, 10.6875, 10.625, 10.6875, 10.375, 10.9375, 10.5625, 10.5625, 10.5625, 10.8125, 10.875, 10.5, 11.3125, 10.9375, 11.3125, 11.125, 10.625, 10.625, 10.75, 10.5, 10.4375, 10.0625, 10.3125, 10.5625, 10.5, 10.4375, 10.0, 10.25, 10.25, 9.625, 11.125, 10.5, 10.5, 10.8125, 10.9375, 11.25, 11.125, 11.125, 11.0, 11.125, 10.8125, 10.625, 10.8125, 11.1875, 10.5, 10.6875, 10.6875, 11.0625, 10.4375, 10.6875, 11.0625, 11.0625, 10.6875, 10.9375, 11.0, 10.625, 10.6875, 11.0625, 10.9375, 10.6875, 10.4375, 10.3125, 10.0, 10.375, 10.5, 10.0625, 10.75, 10.625, 10.8125, 10.4375, 10.375, 10.375, 10.3125, 11.0, 10.5625, 10.1875, 10.4375, 10.5, 10.5, 10.3125, 10.5625, 10.625, 10.4375, 10.0625, 10.3125, 10.0, 10.0, 10.25, 10.0625, 10.25, 10.125, 10.5, 10.3125, 10.1875, 9.9375, 10.6875, 10.1875, 10.375, 10.25, 10.75, 10.375, 11.25, 10.5, 10.875, 10.5, 9.9375, 10.75, 10.3125, 10.375, 10.5, 10.25, 10.5, 10.3125, 10.5625, 10.625, 9.875, 10.625, 10.6875, 10.8125, 10.625, 10.125, 10.25, 10.3125, 10.0625, 10.25, 10.25, 10.5, 10.25, 10.5, 10.75, 10.4375, 10.75, 10.1875, 10.5, 10.375, 10.5, 10.75, 10.5, 10.5, 10.125, 10.1875, 10.0625, 10.25, 9.8125, 9.9375, 10.125, 9.875, 10.0625, 10.1875, 10.25, 10.25, 10.3125, 10.5625, 10.375, 10.4375, 9.5, 10.0625, 10.25, 10.625, 10.4375, 11.125, 10.4375, 10.0, 10.1875, 10.3125, 10.625, 10.625, 10.3125, 10.1875, 10.1875, 9.875, 10.4375, 10.6875, 10.625, 10.5625, 10.0, 10.3125, 10.375, 10.0625, 10.375, 10.75, 10.5, 10.5, 10.3125, 10.5625, 10.3125, 10.4375, 11.0625, 10.4375, 10.375, 10.1875, 10.375, 10.5625, 10.3125, 10.3125, 10.375, 10.0, 9.8125, 10.125, 10.375, 10.4375, 10.8125, 10.6875, 10.5, 10.4375, 10.5, 10.75, 10.375, 10.25, 10.625, 10.3125, 10.8125, 9.8125, 10.3125, 10.25, 9.9375, 10.25, 10.75, 10.3125, 10.25, 10.375, 10.125, 10.625, 10.8125, 10.375, 10.5, 10.4375, 10.25, 10.0625, 10.375, 10.3125, 10.4375, 10.3125, 10.0625, 10.1875, 10.1875, 10.125, 9.9375, 9.9375, 10.0, 10.4375, 10.0, 10.0, 10.875, 11.0625, 10.625, 10.375, 10.0, 10.3125, 10.4375, 10.8125, 10.3125, 10.9375, 10.75, 11.0, 11.0625, 10.4375, 10.0, 10.5625, 10.75, 10.375, 10.0, 10.0625, 10.25, 10.3125, 10.3125, 10.0625, 10.375, 10.375, 9.8125, 9.875, 10.125, 10.3125, 10.0625, 10.4375, 10.9375, 10.375, 10.25, 10.375, 10.5, 10.4375, 10.375, 10.125, 10.4375, 10.125, 10.5625, 10.4375, 10.75, 10.5625, 10.6875, 10.5, 11.3125, 10.75, 10.625, 10.1875, 9.8125, 10.1875, 10.4375, 11.3125, 10.8125, 10.6875, 10.25, 10.1875, 10.5, 10.3125, 10.9375, 10.625, 10.3125, 10.4375, 10.125, 10.5, 10.75, 10.8125, 10.8125, 11.0, 10.375, 10.375, 11.0, 10.625, 10.0625, 9.75, 9.875, 10.375, 9.9375, 9.875, 10.3125, 10.1875, 10.375, 11.0, 10.25, 10.5625, 10.375, 10.5625, 10.1875, 10.5, 10.1875, 10.3125, 10.75, 10.125, 10.25, 10.9375, 10.6875, 10.6875, 10.25, 10.875, 10.3125, 10.3125, 10.9375, 10.25, 10.5, 10.6875, 10.4375, 10.5, 10.0, 10.0625, 9.9375, 10.4375, 10.1875, 10.625, 10.0625, 10.25, 9.6875, 9.8125, 10.3125, 10.5, 10.1875, 10.8125, 10.125, 10.375, 10.25, 10.1875, 10.0, 9.875, 10.5625, 10.0, 10.25, 10.25, 10.3125, 10.625, 10.3125, 11.125, 10.5625, 10.4375, 10.375, 10.3125, 10.8125, 11.4375, 11.125, 10.625, 10.25, 10.4375, 10.25, 9.9375, 10.125, 10.125, 10.25, 10.0625, 9.875, 10.5625, 10.5, 9.875, 10.1875, 10.3125, 10.25, 10.125, 9.9375, 10.0625, 10.3125, 10.375, 10.3125, 10.5625, 10.3125, 9.8125, 10.25, 10.125, 9.875, 10.1875, 10.1875, 10.375, 10.25, 10.0625, 9.9375, 10.0625, 9.8125, 10.1875, 9.9375, 10.5625, 10.0625, 10.625, 10.4375, 10.5625, 10.25, 11.625, 11.125, 10.75, 9.875, 11.375, 10.8125, 10.0625, 10.4375, 10.3125, 10.0, 10.1875, 10.25, 12.1875, 11.0625, 10.6875, 12.375, 11.6875, 11.125, 11.3125, 11.125, 11.625, 11.25, 11.3125, 10.5, 11.375, 12.1875, 12.0625, 10.5, 10.9375, 11.25, 10.9375, 10.8125, 10.4375, 11.0, 11.25, 11.3125, 10.375, 10.25, 10.875, 10.8125, 11.125, 10.4375, 10.25, 10.8125, 10.5625, 11.1875, 11.1875, 11.4375, 11.25, 11.6875, 11.3125, 10.8125, 10.1875, 11.1875, 11.5625, 10.6875, 10.0, 10.1875, 10.4375, 10.1875, 10.5625, 10.75, 10.9375, 11.1875, 10.9375, 10.6875, 10.6875, 10.5625, 11.875, 10.9375, 10.625, 11.125, 11.5625, 11.0625, 11.8125, 11.3125, 10.0, 9.9375, 10.0, 9.9375, 10.125, 10.125, 10.4375, 9.9375, 10.5625, 10.25, 10.6875, 10.1875, 10.3125, 10.8125, 10.75, 10.25, 10.4375, 10.375, 10.875, 11.3125, 10.625, 9.9375, 10.8125, 10.8125, 10.875, 10.8125, 10.3125, 10.6875, 10.3125, 10.5, 10.625, 11.0625, 10.9375, 10.8125, 10.4375, 10.3125, 10.5625, 10.5625, 10.875, 10.625, 10.4375, 11.3125, 11.0, 10.0625, 10.8125, 11.125, 10.9375, 11.125, 10.0, 11.0625, 11.4375, 11.0, 10.4375, 11.0, 10.8125, 10.625, 10.9375, 10.5625, 10.75, 10.4375, 11.125, 10.75, 11.25, 11.0, 10.5625, 10.75, 11.625, 11.0625, 11.3125, 11.1875, 10.1875, 10.8125, 10.0625, 10.125, 10.4375, 10.625, 10.4375, 10.3125, 10.3125, 10.1875, 10.5, 10.6875, 11.3125, 11.625, 10.75, 10.1875, 10.625, 10.6875, 11.5625, 11.375, 11.0, 11.0, 10.75, 11.0625, 10.9375, 10.125, 10.875, 11.6875, 10.4375, 10.9375, 10.0625, 10.375, 10.6875, 10.125, 10.75, 10.375, 10.5625, 10.5625, 10.625, 10.8125, 10.5625, 10.4375, 11.3125, 11.8125, 10.875, 11.0625, 10.75, 10.3125, 12.0, 11.4375, 11.9375, 10.75, 11.25, 11.1875, 11.4375, 11.0, 10.25, 10.6875, 10.875, 10.375, 11.125, 10.5, 11.125, 11.0625, 10.4375, 10.6875, 10.625, 11.1875, 10.6875, 10.75, 10.875, 11.1875, 11.0, 10.625, 10.625, 10.75, 10.6875, 11.5625, 11.3125, 10.25, 10.625, 11.125, 11.875, 11.0625, 11.375, 11.25, 10.4375, 10.5, 10.125, 10.75, 10.75, 10.3125, 10.8125, 10.5625, 10.8125, 10.5625, 10.8125, 11.3125, 11.3125, 11.4375, 11.25, 11.1875, 10.5625, 10.6875, 11.5625, 10.6875, 10.375, 10.6875, 10.4375, 10.875, 10.25, 10.625, 11.125, 11.6875, 11.75, 11.3125, 11.3125, 11.9375, 11.125, 10.625, 11.0, 11.1875, 10.625, 10.5, 10.625, 11.4375, 12.25, 11.1875, 12.125, 11.5625, 11.5, 10.8125, 10.875, 10.625, 11.4375, 11.875, 11.125, 11.25, 11.4375, 11.1875, 10.625, 10.3125, 11.9375, 10.6875, 10.8125, 11.125, 10.9375, 11.375, 11.5625, 11.6875, 11.1875, 10.875, 11.3125, 11.125, 11.4375, 11.875, 12.0, 10.9375, 11.625, 11.5, 10.8125, 11.375, 11.5625, 12.25, 11.375, 11.125, 12.0625, 12.125, 11.3125, 11.625, 11.5625, 11.25, 10.6875, 11.5, 11.3125, 10.6875, 11.1875, 11.1875, 11.4375, 11.25, 10.5625, 11.375, 11.3125, 11.4375, 11.25, 11.0, 11.0, 10.4375, 11.5625, 11.625, 11.6875, 10.625, 10.4375, 10.625, 10.625, 10.875, 9.9375, 11.0, 10.8125, 10.6875, 10.9375, 11.5, 10.1875, 10.3125, 10.875, 11.0, 10.875, 10.6875, 11.125, 10.9375, 10.8125, 10.6875, 11.125, 10.6875, 10.5625, 11.0, 11.25, 11.5, 11.0, 10.75, 10.6875, 10.1875, 10.8125, 9.8125, 11.0, 11.875, 11.5625, 10.9375, 11.9375, 12.375, 11.5, 11.6875, 12.5, 11.25, 12.25, 12.0625, 12.0625, 10.875, 11.4375, 10.6875, 11.5625, 10.625, 12.125, 11.875, 11.875, 11.5, 11.25, 12.125, 12.4375, 10.9375, 11.25, 11.4375, 11.3125, 11.625, 11.8125, 11.75, 11.625, 11.5625, 12.4375, 11.3125, 10.6875, 12.125, 11.5625, 12.5625, 11.8125, 11.8125, 12.3125, 11.9375, 11.4375, 11.375, 11.5625, 12.5, 10.5, 10.1875, 10.5, 10.5, 10.4375, 10.625, 10.625, 10.375, 10.625, 10.4375, 10.8125, 10.9375, 10.5625, 10.5625, 10.5625, 10.5625, 11.125, 11.0625, 10.5625, 10.5, 10.4375, 10.25, 10.5, 10.6875, 10.75, 10.25, 10.5625, 10.375, 10.625, 10.4375, 10.75, 11.125, 11.0625, 10.9375, 11.0625, 11.25, 10.3125, 10.4375, 10.375, 10.4375, 10.5, 10.5625, 11.25, 11.3125, 12.125, 10.6875, 11.5, 10.6875, 11.8125, 10.8125, 11.25, 10.1875, 11.25, 12.4375, 11.0625, 11.5625, 11.75, 12.125, 11.0625, 11.0625, 10.4375, 11.375, 10.75, 10.3125, 10.75, 10.6875, 10.8125, 10.375, 10.3125, 10.125, 10.75, 10.4375, 10.625, 10.3125, 10.4375, 10.4375, 10.5625, 10.9375, 11.5, 10.5625, 11.0625, 10.625, 10.6875, 10.5625, 10.5, 10.6875, 10.5, 11.125, 10.75, 11.0625, 10.5625, 10.8125, 11.25, 10.5, 10.875, 11.0625, 9.75, 10.4375, 10.875, 11.5, 11.0625, 10.875, 11.375, 11.5, 11.0625, 10.9375, 10.4375, 11.3125, 10.625, 11.5625, 11.625, 11.3125, 11.4375, 11.25, 10.6875, 11.5, 12.125, 12.0, 11.75, 11.1875, 11.3125, 11.125, 11.0, 11.5, 10.5625, 10.5, 10.4375, 11.0, 10.625, 10.6875, 11.125, 11.375, 10.3125, 10.6875, 11.375, 10.625, 11.1875, 11.0, 10.875, 11.0, 10.625, 10.875, 10.625, 10.875, 11.625, 11.3125, 11.4375, 11.8125, 10.9375, 10.8125, 11.1875, 10.5625, 10.75, 11.6875, 11.8125, 11.5, 11.625, 11.6875, 11.6875, 11.375, 11.5625, 11.0, 10.6875, 10.625, 11.375, 11.75, 11.375, 11.25, 11.0625, 11.375, 12.1875, 11.25, 11.9375, 10.5625, 11.375, 11.3125, 11.5625, 11.875, 11.375, 11.5625, 11.75, 12.125, 11.8125, 11.8125, 11.4375, 11.8125, 10.875, 12.0, 10.875, 11.3125, 11.4375, 10.875, 10.875, 10.4375, 10.25, 9.9375, 10.6875, 10.5, 10.6875, 10.1875, 10.5625, 10.5625, 11.375, 11.25, 11.25, 11.8125, 11.6875, 11.5625, 11.8125, 11.125, 11.3125, 11.125, 11.6875, 11.125, 11.0625, 10.4375, 11.25, 12.1875, 12.3125, 11.125, 12.25, 11.0625, 11.625, 11.4375, 11.8125, 11.3125, 12.0, 10.9375, 11.4375, 11.375, 11.75, 11.5, 12.25, 11.75, 10.875, 11.125, 11.8125, 11.0, 12.125, 11.5625, 12.0, 11.0, 11.875, 11.625, 11.25, 11.1875, 11.5625, 10.8125, 11.6875, 11.3125, 12.0625, 11.9375, 11.0, 11.4375, 11.125, 10.6875, 11.0625, 11.1875, 10.6875, 11.3125, 11.4375, 11.1875, 11.75, 11.25, 11.0625, 10.375, 11.375, 11.6875, 11.5625, 11.6875, 12.3125, 12.1875, 12.6875, 12.0625, 11.5, 11.4375, 11.1875, 10.6875, 11.1875, 11.125, 10.625, 11.5625, 12.3125, 11.25, 11.5, 11.5, 12.0625, 11.0625, 11.4375, 11.875, 11.3125, 10.8125, 11.8125, 11.75, 11.1875, 11.5, 10.9375, 11.875, 12.1875, 11.6875, 11.8125, 12.1875, 11.5625, 11.125, 11.1875, 10.6875, 11.375, 11.3125, 10.4375, 11.125, 11.4375, 11.75, 12.25, 12.3125, 11.5625, 11.375, 11.3125, 11.5, 11.5625, 11.5, 11.6875, 10.8125, 10.9375, 11.5625, 11.875, 11.0625, 11.9375, 11.625, 11.75, 11.1875, 11.4375, 11.125, 11.125, 11.5625, 11.0, 10.75, 10.9375, 10.875, 11.4375, 11.75, 12.3125, 12.0625, 10.8125, 11.3125, 11.25, 11.375, 11.1875, 11.375, 11.8125, 12.375, 11.875, 11.6875, 11.375, 11.9375, 11.75, 11.75, 11.625, 11.3125, 12.0625, 11.25, 11.625, 11.1875, 10.0, 11.6875, 10.8125, 12.0, 12.0625, 11.5625, 11.6875, 11.625, 11.125, 11.25, 10.75, 10.5625, 11.0, 11.3125, 10.875, 10.0, 11.1875, 10.75, 10.6875, 10.5625, 10.625, 10.8125, 11.375, 11.375, 11.125, 11.125, 11.0, 10.75, 10.625, 10.375, 11.6875, 11.3125, 10.875, 11.375, 10.75, 10.9375, 11.1875, 10.875, 10.6875, 10.8125, 11.0625, 11.5625, 11.3125, 11.0, 11.25, 11.1875, 10.8125, 11.25, 11.5625, 11.1875, 10.875, 11.1875, 11.4375, 11.25, 11.4375, 11.4375, 11.625, 10.8125, 11.0625, 11.125, 10.6875, 12.125, 11.125, 11.25, 11.125, 10.5625, 11.5625, 10.8125, 11.6875, 10.9375, 11.1875, 10.5, 11.625, 12.5625, 12.1875, 11.4375, 12.3125, 11.125, 11.5, 10.875, 12.3125, 12.5, 11.625, 12.5, 11.9375, 10.9375, 11.5625, 11.5, 11.375, 12.0625, 12.25, 11.9375, 10.6875, 11.5, 10.6875, 11.5625, 12.9375, 10.875, 10.5, 11.1875, 11.0, 11.1875, 11.125, 10.75, 10.9375, 11.6875, 12.0, 11.75, 10.8125, 11.1875, 11.625, 10.8125, 11.625, 12.0, 12.0, 11.5625, 10.375, 11.5625, 10.9375, 12.4375, 11.75, 12.25, 11.0625, 12.625, 12.3125, 11.1875, 11.625, 12.0, 12.3125, 12.5625, 12.25, 11.8125, 11.9375, 12.0625, 11.5, 12.375, 11.6875, 11.25, 11.9375, 12.0625, 11.6875, 12.5, 11.5625, 11.875, 11.875, 11.375, 12.3125, 10.75, 10.875, 11.8125, 11.625, 10.875, 12.0, 11.875, 12.25, 11.5, 11.6875, 11.5625, 12.25, 11.625, 11.625, 11.3125, 11.6875, 11.75, 11.9375, 12.25, 11.5625, 11.5, 12.0625, 12.125, 11.3125, 11.5625, 11.9375, 11.375, 11.6875, 12.0625, 11.5, 10.6875, 10.9375, 10.875, 10.875, 11.125, 10.375, 10.625, 10.6875, 10.6875, 10.625, 10.375, 10.5, 10.3125, 10.6875, 10.6875, 11.1875, 10.5, 10.9375, 10.75, 10.875, 10.6875, 11.0, 10.75, 10.4375, 9.9375, 12.0, 11.0, 11.3125, 10.625, 10.6875, 11.4375, 10.75, 11.6875, 11.25, 11.25, 11.5, 10.75, 10.5, 10.625, 10.6875, 10.625, 10.875, 10.75, 10.375, 10.375, 11.25, 11.125, 10.6875, 10.5625, 10.9375, 11.4375, 11.75, 11.25, 10.6875, 11.0, 10.875, 10.6875, 10.75, 11.0625, 10.4375, 10.875, 10.3125, 10.375, 10.6875, 10.625, 10.875, 10.625, 10.375, 9.875, 10.8125, 11.3125, 10.875, 10.4375, 11.0, 10.75, 11.0, 10.9375, 10.8125, 11.0625, 10.875, 10.4375, 10.9375, 10.125, 10.875, 10.75, 11.0, 10.5, 10.5625, 10.3125, 10.4375, 10.4375, 10.5625, 10.1875, 10.0, 10.4375, 10.25, 10.375, 10.3125, 10.5625, 10.5, 10.25, 9.9375, 9.875, 10.3125, 10.875, 10.75, 10.0625, 10.375, 10.5, 10.25, 10.3125, 10.0625, 9.8125, 10.25, 10.3125, 10.625, 10.375, 10.125, 10.0, 10.1875, 10.0, 10.125, 10.0625, 10.25, 10.5625, 10.0625, 9.875, 10.1875, 10.25, 10.4375, 10.75, 10.5625, 10.5625, 10.625, 10.625, 11.0, 10.4375, 10.25, 10.5, 10.4375, 10.625, 10.3125, 10.375, 10.4375, 10.3125, 10.5625, 10.4375, 10.75, 10.8125, 11.0, 10.625, 10.5, 10.625, 10.6875, 10.625, 9.9375, 10.125, 10.0625, 10.0, 10.1875, 9.9375, 10.0625, 10.4375, 10.3125, 10.1875, 11.1875, 10.625, 10.6875, 10.375, 10.3125, 10.125, 10.125, 10.5, 10.6875, 10.25, 10.3125, 10.25, 10.0625, 10.3125, 10.5625, 10.375, 10.3125, 10.6875, 10.375, 10.6875, 10.4375, 10.3125, 10.125, 10.0, 10.4375, 10.875, 10.6875, 10.75, 10.625, 10.875, 10.625, 10.3125, 10.25, 10.125, 10.4375, 10.25, 10.25, 10.25, 10.25, 10.5, 10.0625, 10.125, 10.3125, 10.4375, 10.375, 10.5, 10.3125, 10.625, 10.625, 10.6875, 10.875, 10.5, 10.1875, 10.3125, 10.125, 10.5]","[59904.0, 11072.0, 9216.0, 11072.0, 11072.0, 11840.0, 12544.0, 14272.0, 14272.0, 13376.0, 11072.0, 19456.0, 11840.0, 11072.0, 13376.0, 11840.0, 11840.0, 12544.0, 11840.0, 12544.0, 13376.0, 12544.0, 12544.0, 14272.0, 12544.0, 16128.0, 14272.0, 14272.0, 13376.0, 14272.0, 14272.0, 16128.0, 14272.0, 13376.0, 13376.0, 16128.0, 15168.0, 17152.0, 19456.0, 20736.0, 23424.0, 19456.0, 15168.0, 23424.0, 19456.0, 19456.0, 19456.0, 19456.0, 15168.0, 15168.0, 16128.0, 22016.0, 22016.0, 15168.0, 16128.0, 20736.0, 18304.0, 20736.0, 18304.0, 16128.0, 16128.0, 18304.0, 17152.0, 19456.0, 20736.0, 20736.0, 16128.0, 17152.0, 17152.0, 19456.0, 18304.0, 19456.0, 18304.0, 20736.0, 24960.0, 32128.0, 15168.0, 15168.0, 15168.0, 16128.0, 16128.0, 17152.0, 20736.0, 23424.0, 28288.0, 34304.0, 24960.0, 28288.0, 24960.0, 63744.0, 41216.0, 43776.0, 46592.0, 49664.0, 28288.0, 20736.0, 30208.0, 38656.0, 30208.0, 30208.0, 18304.0, 34304.0, 43776.0, 36352.0, 41216.0, 59904.0, 59904.0, 52992.0, 52992.0, 32128.0, 20736.0, 26624.0, 41216.0, 63744.0, 87040.0, 105472.0, 56320.0, 41216.0, 105472.0, 72192.0, 32128.0, 28288.0, 38656.0, 72192.0, 38656.0, 38656.0, 38656.0, 30208.0, 18304.0, 30208.0, 28288.0, 32128.0, 38656.0, 56320.0, 56320.0, 34304.0, 81920.0, 43776.0, 41216.0, 43776.0, 32128.0, 56320.0, 38656.0, 38656.0, 38656.0, 49664.0, 52992.0, 36352.0, 81920.0, 56320.0, 81920.0, 68096.0, 41216.0, 41216.0, 46592.0, 36352.0, 34304.0, 23424.0, 30208.0, 38656.0, 36352.0, 34304.0, 22016.0, 28288.0, 28288.0, 15168.0, 68096.0, 36352.0, 36352.0, 49664.0, 56320.0, 76800.0, 68096.0, 68096.0, 59904.0, 68096.0, 49664.0, 41216.0, 49664.0, 72192.0, 36352.0, 43776.0, 43776.0, 63744.0, 34304.0, 43776.0, 63744.0, 63744.0, 43776.0, 56320.0, 59904.0, 41216.0, 43776.0, 63744.0, 56320.0, 43776.0, 34304.0, 30208.0, 22016.0, 32128.0, 36352.0, 23424.0, 46592.0, 41216.0, 49664.0, 34304.0, 32128.0, 32128.0, 30208.0, 59904.0, 38656.0, 26624.0, 34304.0, 36352.0, 36352.0, 30208.0, 38656.0, 41216.0, 34304.0, 23424.0, 30208.0, 22016.0, 22016.0, 28288.0, 23424.0, 28288.0, 24960.0, 36352.0, 30208.0, 26624.0, 20736.0, 43776.0, 26624.0, 32128.0, 28288.0, 46592.0, 32128.0, 76800.0, 36352.0, 52992.0, 36352.0, 20736.0, 46592.0, 30208.0, 32128.0, 36352.0, 28288.0, 36352.0, 30208.0, 38656.0, 41216.0, 19456.0, 41216.0, 43776.0, 49664.0, 41216.0, 24960.0, 28288.0, 30208.0, 23424.0, 28288.0, 28288.0, 36352.0, 28288.0, 36352.0, 46592.0, 34304.0, 46592.0, 26624.0, 36352.0, 32128.0, 36352.0, 46592.0, 36352.0, 36352.0, 24960.0, 26624.0, 23424.0, 28288.0, 18304.0, 20736.0, 24960.0, 19456.0, 23424.0, 26624.0, 28288.0, 28288.0, 30208.0, 38656.0, 32128.0, 34304.0, 13376.0, 23424.0, 28288.0, 41216.0, 34304.0, 68096.0, 34304.0, 22016.0, 26624.0, 30208.0, 41216.0, 41216.0, 30208.0, 26624.0, 26624.0, 19456.0, 34304.0, 43776.0, 41216.0, 38656.0, 22016.0, 30208.0, 32128.0, 23424.0, 32128.0, 46592.0, 36352.0, 36352.0, 30208.0, 38656.0, 30208.0, 34304.0, 63744.0, 34304.0, 32128.0, 26624.0, 32128.0, 38656.0, 30208.0, 30208.0, 32128.0, 22016.0, 18304.0, 24960.0, 32128.0, 34304.0, 49664.0, 43776.0, 36352.0, 34304.0, 36352.0, 46592.0, 32128.0, 28288.0, 41216.0, 30208.0, 49664.0, 18304.0, 30208.0, 28288.0, 20736.0, 28288.0, 46592.0, 30208.0, 28288.0, 32128.0, 24960.0, 41216.0, 49664.0, 32128.0, 36352.0, 34304.0, 28288.0, 23424.0, 32128.0, 30208.0, 34304.0, 30208.0, 23424.0, 26624.0, 26624.0, 24960.0, 20736.0, 20736.0, 22016.0, 34304.0, 22016.0, 22016.0, 52992.0, 63744.0, 41216.0, 32128.0, 22016.0, 30208.0, 34304.0, 49664.0, 30208.0, 56320.0, 46592.0, 59904.0, 63744.0, 34304.0, 22016.0, 38656.0, 46592.0, 32128.0, 22016.0, 23424.0, 28288.0, 30208.0, 30208.0, 23424.0, 32128.0, 32128.0, 18304.0, 19456.0, 24960.0, 30208.0, 23424.0, 34304.0, 56320.0, 32128.0, 28288.0, 32128.0, 36352.0, 34304.0, 32128.0, 24960.0, 34304.0, 24960.0, 38656.0, 34304.0, 46592.0, 38656.0, 43776.0, 36352.0, 81920.0, 46592.0, 41216.0, 26624.0, 18304.0, 26624.0, 34304.0, 81920.0, 49664.0, 43776.0, 28288.0, 26624.0, 36352.0, 30208.0, 56320.0, 41216.0, 30208.0, 34304.0, 24960.0, 36352.0, 46592.0, 49664.0, 49664.0, 59904.0, 32128.0, 32128.0, 59904.0, 41216.0, 23424.0, 17152.0, 19456.0, 32128.0, 20736.0, 19456.0, 30208.0, 26624.0, 32128.0, 59904.0, 28288.0, 38656.0, 32128.0, 38656.0, 26624.0, 36352.0, 26624.0, 30208.0, 46592.0, 24960.0, 28288.0, 56320.0, 43776.0, 43776.0, 28288.0, 52992.0, 30208.0, 30208.0, 56320.0, 28288.0, 36352.0, 43776.0, 34304.0, 36352.0, 22016.0, 23424.0, 20736.0, 34304.0, 26624.0, 41216.0, 23424.0, 28288.0, 16128.0, 18304.0, 30208.0, 36352.0, 26624.0, 49664.0, 24960.0, 32128.0, 28288.0, 26624.0, 22016.0, 19456.0, 38656.0, 22016.0, 28288.0, 28288.0, 30208.0, 41216.0, 30208.0, 68096.0, 38656.0, 34304.0, 32128.0, 30208.0, 49664.0, 92672.0, 68096.0, 41216.0, 28288.0, 34304.0, 28288.0, 20736.0, 24960.0, 24960.0, 28288.0, 23424.0, 19456.0, 38656.0, 36352.0, 19456.0, 26624.0, 30208.0, 28288.0, 24960.0, 20736.0, 23424.0, 30208.0, 32128.0, 30208.0, 38656.0, 30208.0, 18304.0, 28288.0, 24960.0, 19456.0, 26624.0, 26624.0, 32128.0, 28288.0, 23424.0, 20736.0, 23424.0, 18304.0, 26624.0, 20736.0, 38656.0, 23424.0, 41216.0, 34304.0, 38656.0, 28288.0, 112128.0, 68096.0, 46592.0, 19456.0, 87040.0, 49664.0, 23424.0, 34304.0, 30208.0, 22016.0, 26624.0, 28288.0, 196608.0, 63744.0, 43776.0, 237568.0, 119296.0, 68096.0, 81920.0, 68096.0, 112128.0, 76800.0, 81920.0, 36352.0, 87040.0, 196608.0, 174080.0, 36352.0, 56320.0, 76800.0, 56320.0, 49664.0, 34304.0, 59904.0, 76800.0, 81920.0, 32128.0, 28288.0, 52992.0, 49664.0, 68096.0, 34304.0, 28288.0, 49664.0, 38656.0, 72192.0, 72192.0, 92672.0, 76800.0, 119296.0, 81920.0, 49664.0, 26624.0, 72192.0, 105472.0, 43776.0, 22016.0, 26624.0, 34304.0, 26624.0, 38656.0, 46592.0, 56320.0, 72192.0, 56320.0, 43776.0, 43776.0, 38656.0, 144384.0, 56320.0, 41216.0, 68096.0, 105472.0, 63744.0, 135168.0, 81920.0, 22016.0, 20736.0, 22016.0, 20736.0, 24960.0, 24960.0, 34304.0, 20736.0, 38656.0, 28288.0, 43776.0, 26624.0, 30208.0, 49664.0, 46592.0, 28288.0, 34304.0, 32128.0, 52992.0, 81920.0, 41216.0, 20736.0, 49664.0, 49664.0, 52992.0, 49664.0, 30208.0, 43776.0, 30208.0, 36352.0, 41216.0, 63744.0, 56320.0, 49664.0, 34304.0, 30208.0, 38656.0, 38656.0, 52992.0, 41216.0, 34304.0, 81920.0, 59904.0, 23424.0, 49664.0, 68096.0, 56320.0, 68096.0, 22016.0, 63744.0, 92672.0, 59904.0, 34304.0, 59904.0, 49664.0, 41216.0, 56320.0, 38656.0, 46592.0, 34304.0, 68096.0, 46592.0, 76800.0, 59904.0, 38656.0, 46592.0, 112128.0, 63744.0, 81920.0, 72192.0, 26624.0, 49664.0, 23424.0, 24960.0, 34304.0, 41216.0, 34304.0, 30208.0, 30208.0, 26624.0, 36352.0, 43776.0, 81920.0, 112128.0, 46592.0, 26624.0, 41216.0, 43776.0, 105472.0, 87040.0, 59904.0, 59904.0, 46592.0, 63744.0, 56320.0, 24960.0, 52992.0, 119296.0, 34304.0, 56320.0, 23424.0, 32128.0, 43776.0, 24960.0, 46592.0, 32128.0, 38656.0, 38656.0, 41216.0, 49664.0, 38656.0, 34304.0, 81920.0, 135168.0, 52992.0, 63744.0, 46592.0, 30208.0, 162816.0, 92672.0, 153600.0, 46592.0, 76800.0, 72192.0, 92672.0, 59904.0, 28288.0, 43776.0, 52992.0, 32128.0, 68096.0, 36352.0, 68096.0, 63744.0, 34304.0, 43776.0, 41216.0, 72192.0, 43776.0, 46592.0, 52992.0, 72192.0, 59904.0, 41216.0, 41216.0, 46592.0, 43776.0, 105472.0, 81920.0, 28288.0, 41216.0, 68096.0, 144384.0, 63744.0, 87040.0, 76800.0, 34304.0, 36352.0, 24960.0, 46592.0, 46592.0, 30208.0, 49664.0, 38656.0, 49664.0, 38656.0, 49664.0, 81920.0, 81920.0, 92672.0, 76800.0, 72192.0, 38656.0, 43776.0, 105472.0, 43776.0, 32128.0, 43776.0, 34304.0, 52992.0, 28288.0, 41216.0, 68096.0, 119296.0, 126976.0, 81920.0, 81920.0, 153600.0, 68096.0, 41216.0, 59904.0, 72192.0, 41216.0, 36352.0, 41216.0, 92672.0, 209920.0, 72192.0, 184320.0, 105472.0, 98816.0, 49664.0, 52992.0, 41216.0, 92672.0, 144384.0, 68096.0, 76800.0, 92672.0, 72192.0, 41216.0, 30208.0, 153600.0, 43776.0, 49664.0, 68096.0, 56320.0, 87040.0, 105472.0, 119296.0, 72192.0, 52992.0, 81920.0, 68096.0, 92672.0, 144384.0, 162816.0, 56320.0, 112128.0, 98816.0, 49664.0, 87040.0, 105472.0, 209920.0, 87040.0, 68096.0, 174080.0, 184320.0, 81920.0, 112128.0, 105472.0, 76800.0, 43776.0, 98816.0, 81920.0, 43776.0, 72192.0, 72192.0, 92672.0, 76800.0, 38656.0, 87040.0, 81920.0, 92672.0, 76800.0, 59904.0, 59904.0, 34304.0, 105472.0, 112128.0, 119296.0, 41216.0, 34304.0, 41216.0, 41216.0, 52992.0, 20736.0, 59904.0, 49664.0, 43776.0, 56320.0, 98816.0, 26624.0, 30208.0, 52992.0, 59904.0, 52992.0, 43776.0, 68096.0, 56320.0, 49664.0, 43776.0, 68096.0, 43776.0, 38656.0, 59904.0, 76800.0, 98816.0, 59904.0, 46592.0, 43776.0, 26624.0, 49664.0, 18304.0, 59904.0, 144384.0, 105472.0, 56320.0, 153600.0, 237568.0, 98816.0, 119296.0, 268288.0, 76800.0, 209920.0, 174080.0, 174080.0, 52992.0, 92672.0, 43776.0, 105472.0, 41216.0, 184320.0, 144384.0, 144384.0, 98816.0, 76800.0, 184320.0, 252928.0, 56320.0, 76800.0, 92672.0, 81920.0, 112128.0, 135168.0, 126976.0, 112128.0, 105472.0, 252928.0, 81920.0, 43776.0, 184320.0, 105472.0, 286720.0, 135168.0, 135168.0, 223232.0, 153600.0, 92672.0, 87040.0, 105472.0, 268288.0, 36352.0, 26624.0, 36352.0, 36352.0, 34304.0, 41216.0, 41216.0, 32128.0, 41216.0, 34304.0, 49664.0, 56320.0, 38656.0, 38656.0, 38656.0, 38656.0, 68096.0, 63744.0, 38656.0, 36352.0, 34304.0, 28288.0, 36352.0, 43776.0, 46592.0, 28288.0, 38656.0, 32128.0, 41216.0, 34304.0, 46592.0, 68096.0, 63744.0, 56320.0, 63744.0, 76800.0, 30208.0, 34304.0, 32128.0, 34304.0, 36352.0, 38656.0, 76800.0, 81920.0, 184320.0, 43776.0, 98816.0, 43776.0, 135168.0, 49664.0, 76800.0, 26624.0, 76800.0, 252928.0, 63744.0, 105472.0, 126976.0, 184320.0, 63744.0, 63744.0, 34304.0, 87040.0, 46592.0, 30208.0, 46592.0, 43776.0, 49664.0, 32128.0, 30208.0, 24960.0, 46592.0, 34304.0, 41216.0, 30208.0, 34304.0, 34304.0, 38656.0, 56320.0, 98816.0, 38656.0, 63744.0, 41216.0, 43776.0, 38656.0, 36352.0, 43776.0, 36352.0, 68096.0, 46592.0, 63744.0, 38656.0, 49664.0, 76800.0, 36352.0, 52992.0, 63744.0, 17152.0, 34304.0, 52992.0, 98816.0, 63744.0, 52992.0, 87040.0, 98816.0, 63744.0, 56320.0, 34304.0, 81920.0, 41216.0, 105472.0, 112128.0, 81920.0, 92672.0, 76800.0, 43776.0, 98816.0, 184320.0, 162816.0, 126976.0, 72192.0, 81920.0, 68096.0, 59904.0, 98816.0, 38656.0, 36352.0, 34304.0, 59904.0, 41216.0, 43776.0, 68096.0, 87040.0, 30208.0, 43776.0, 87040.0, 41216.0, 72192.0, 59904.0, 52992.0, 59904.0, 41216.0, 52992.0, 41216.0, 52992.0, 112128.0, 81920.0, 92672.0, 135168.0, 56320.0, 49664.0, 72192.0, 38656.0, 46592.0, 119296.0, 135168.0, 98816.0, 112128.0, 119296.0, 119296.0, 87040.0, 105472.0, 59904.0, 43776.0, 41216.0, 87040.0, 126976.0, 87040.0, 76800.0, 63744.0, 87040.0, 196608.0, 76800.0, 153600.0, 38656.0, 87040.0, 81920.0, 105472.0, 144384.0, 87040.0, 105472.0, 126976.0, 184320.0, 135168.0, 135168.0, 92672.0, 135168.0, 52992.0, 162816.0, 52992.0, 81920.0, 92672.0, 52992.0, 52992.0, 34304.0, 28288.0, 20736.0, 43776.0, 36352.0, 43776.0, 26624.0, 38656.0, 38656.0, 87040.0, 76800.0, 76800.0, 135168.0, 119296.0, 105472.0, 135168.0, 68096.0, 81920.0, 68096.0, 119296.0, 68096.0, 63744.0, 34304.0, 76800.0, 196608.0, 223232.0, 68096.0, 209920.0, 63744.0, 112128.0, 92672.0, 135168.0, 81920.0, 162816.0, 56320.0, 92672.0, 87040.0, 126976.0, 98816.0, 209920.0, 126976.0, 52992.0, 68096.0, 135168.0, 59904.0, 184320.0, 105472.0, 162816.0, 59904.0, 144384.0, 112128.0, 76800.0, 72192.0, 105472.0, 49664.0, 119296.0, 81920.0, 174080.0, 153600.0, 59904.0, 92672.0, 68096.0, 43776.0, 63744.0, 72192.0, 43776.0, 81920.0, 92672.0, 72192.0, 126976.0, 76800.0, 63744.0, 32128.0, 87040.0, 119296.0, 105472.0, 119296.0, 223232.0, 196608.0, 323584.0, 174080.0, 98816.0, 92672.0, 72192.0, 43776.0, 72192.0, 68096.0, 41216.0, 105472.0, 223232.0, 76800.0, 98816.0, 98816.0, 174080.0, 63744.0, 92672.0, 144384.0, 81920.0, 49664.0, 135168.0, 126976.0, 72192.0, 98816.0, 56320.0, 144384.0, 196608.0, 119296.0, 135168.0, 196608.0, 105472.0, 68096.0, 72192.0, 43776.0, 87040.0, 81920.0, 34304.0, 68096.0, 92672.0, 126976.0, 209920.0, 223232.0, 105472.0, 87040.0, 81920.0, 98816.0, 105472.0, 98816.0, 119296.0, 49664.0, 56320.0, 105472.0, 144384.0, 63744.0, 153600.0, 112128.0, 126976.0, 72192.0, 92672.0, 68096.0, 68096.0, 105472.0, 59904.0, 46592.0, 56320.0, 52992.0, 92672.0, 126976.0, 223232.0, 174080.0, 49664.0, 81920.0, 76800.0, 87040.0, 72192.0, 87040.0, 135168.0, 237568.0, 144384.0, 119296.0, 87040.0, 153600.0, 126976.0, 126976.0, 112128.0, 81920.0, 174080.0, 76800.0, 112128.0, 72192.0, 22016.0, 119296.0, 49664.0, 162816.0, 174080.0, 105472.0, 119296.0, 112128.0, 68096.0, 76800.0, 46592.0, 38656.0, 59904.0, 81920.0, 52992.0, 22016.0, 72192.0, 46592.0, 43776.0, 38656.0, 41216.0, 49664.0, 87040.0, 87040.0, 68096.0, 68096.0, 59904.0, 46592.0, 41216.0, 32128.0, 119296.0, 81920.0, 52992.0, 87040.0, 46592.0, 56320.0, 72192.0, 52992.0, 43776.0, 49664.0, 63744.0, 105472.0, 81920.0, 59904.0, 76800.0, 72192.0, 49664.0, 76800.0, 105472.0, 72192.0, 52992.0, 72192.0, 92672.0, 76800.0, 92672.0, 92672.0, 112128.0, 49664.0, 63744.0, 68096.0, 43776.0, 184320.0, 68096.0, 76800.0, 68096.0, 38656.0, 105472.0, 49664.0, 119296.0, 56320.0, 72192.0, 36352.0, 112128.0, 286720.0, 196608.0, 92672.0, 223232.0, 68096.0, 98816.0, 52992.0, 223232.0, 268288.0, 112128.0, 268288.0, 153600.0, 56320.0, 105472.0, 98816.0, 87040.0, 174080.0, 209920.0, 153600.0, 43776.0, 98816.0, 43776.0, 105472.0, 415744.0, 52992.0, 36352.0, 72192.0, 59904.0, 72192.0, 68096.0, 46592.0, 56320.0, 119296.0, 162816.0, 126976.0, 49664.0, 72192.0, 112128.0, 49664.0, 112128.0, 162816.0, 162816.0, 105472.0, 32128.0, 105472.0, 56320.0, 252928.0, 126976.0, 209920.0, 63744.0, 305152.0, 223232.0, 72192.0, 112128.0, 162816.0, 223232.0, 286720.0, 209920.0, 135168.0, 153600.0, 174080.0, 98816.0, 237568.0, 119296.0, 76800.0, 153600.0, 174080.0, 119296.0, 268288.0, 105472.0, 144384.0, 144384.0, 87040.0, 223232.0, 46592.0, 52992.0, 135168.0, 112128.0, 52992.0, 162816.0, 144384.0, 209920.0, 98816.0, 119296.0, 105472.0, 209920.0, 112128.0, 112128.0, 81920.0, 119296.0, 126976.0, 153600.0, 209920.0, 105472.0, 98816.0, 174080.0, 184320.0, 81920.0, 105472.0, 153600.0, 87040.0, 119296.0, 174080.0, 98816.0, 43776.0, 56320.0, 52992.0, 52992.0, 68096.0, 32128.0, 41216.0, 43776.0, 43776.0, 41216.0, 32128.0, 36352.0, 30208.0, 43776.0, 43776.0, 72192.0, 36352.0, 56320.0, 46592.0, 52992.0, 43776.0, 59904.0, 46592.0, 34304.0, 20736.0, 162816.0, 59904.0, 81920.0, 41216.0, 43776.0, 92672.0, 46592.0, 119296.0, 76800.0, 76800.0, 98816.0, 46592.0, 36352.0, 41216.0, 43776.0, 41216.0, 52992.0, 46592.0, 32128.0, 32128.0, 76800.0, 68096.0, 43776.0, 38656.0, 56320.0, 92672.0, 126976.0, 76800.0, 43776.0, 59904.0, 52992.0, 43776.0, 46592.0, 63744.0, 34304.0, 52992.0, 30208.0, 32128.0, 43776.0, 41216.0, 52992.0, 41216.0, 32128.0, 19456.0, 49664.0, 81920.0, 52992.0, 34304.0, 59904.0, 46592.0, 59904.0, 56320.0, 49664.0, 63744.0, 52992.0, 34304.0, 56320.0, 24960.0, 52992.0, 46592.0, 59904.0, 36352.0, 38656.0, 30208.0, 34304.0, 34304.0, 38656.0, 26624.0, 22016.0, 34304.0, 28288.0, 32128.0, 30208.0, 38656.0, 36352.0, 28288.0, 20736.0, 19456.0, 30208.0, 52992.0, 46592.0, 23424.0, 32128.0, 36352.0, 28288.0, 30208.0, 23424.0, 18304.0, 28288.0, 30208.0, 41216.0, 32128.0, 24960.0, 22016.0, 26624.0, 22016.0, 24960.0, 23424.0, 28288.0, 38656.0, 23424.0, 19456.0, 26624.0, 28288.0, 34304.0, 46592.0, 38656.0, 38656.0, 41216.0, 41216.0, 59904.0, 34304.0, 28288.0, 36352.0, 34304.0, 41216.0, 30208.0, 32128.0, 34304.0, 30208.0, 38656.0, 34304.0, 46592.0, 49664.0, 59904.0, 41216.0, 36352.0, 41216.0, 43776.0, 41216.0, 20736.0, 24960.0, 23424.0, 22016.0, 26624.0, 20736.0, 23424.0, 34304.0, 30208.0, 26624.0, 72192.0, 41216.0, 43776.0, 32128.0, 30208.0, 24960.0, 24960.0, 36352.0, 43776.0, 28288.0, 30208.0, 28288.0, 23424.0, 30208.0, 38656.0, 32128.0, 30208.0, 43776.0, 32128.0, 43776.0, 34304.0, 30208.0, 24960.0, 22016.0, 34304.0, 52992.0, 43776.0, 46592.0, 41216.0, 52992.0, 41216.0, 30208.0, 28288.0, 24960.0, 34304.0, 28288.0, 28288.0, 28288.0, 28288.0, 36352.0, 23424.0, 24960.0, 30208.0, 34304.0, 32128.0, 36352.0, 30208.0, 41216.0, 41216.0, 43776.0, 52992.0, 36352.0, 26624.0, 30208.0, 24960.0, 36352.0]","[11.0, 9.3125, 9.125, 9.25, 9.25, 9.25, 9.3125, 9.4375, 9.4375, 9.4375, 9.25, 9.5, 9.4375, 9.1875, 9.375, 9.1875, 9.25, 9.375, 9.3125, 9.25, 9.3125, 9.3125, 9.3125, 9.4375, 9.3125, 9.375, 9.3125, 9.375, 9.375, 9.4375, 9.375, 9.5, 9.4375, 9.3125, 9.4375, 9.4375, 9.5, 9.5, 9.5, 9.5625, 9.5625, 9.5625, 9.375, 9.6875, 9.5, 9.5625, 9.5, 9.5625, 9.4375, 9.375, 9.5, 9.5, 9.4375, 9.375, 9.4375, 9.5, 9.5625, 9.5625, 9.5625, 9.4375, 9.4375, 9.5625, 9.5, 9.5, 9.5625, 9.625, 9.5, 9.5, 9.5, 9.5, 9.5, 9.4375, 9.375, 9.5, 9.5625, 9.6875, 9.375, 9.3125, 9.375, 9.375, 9.375, 9.375, 9.625, 9.625, 9.375, 9.5625, 9.5, 9.5, 9.5, 9.8125, 9.375, 9.375, 9.5, 9.5625, 9.625, 9.5625, 9.5625, 9.625, 9.5625, 9.5625, 9.375, 9.625, 9.5625, 9.6875, 9.6875, 9.9375, 9.9375, 9.8125, 9.8125, 9.6875, 9.6875, 9.5625, 10.0625, 9.8125, 9.75, 9.8125, 9.5625, 9.625, 10.4375, 9.9375, 9.4375, 9.5625, 9.625, 9.875, 9.6875, 9.5625, 9.4375, 9.75, 9.375, 9.4375, 9.4375, 9.625, 9.875, 9.875, 9.875, 9.875, 9.875, 9.6875, 9.6875, 9.6875, 9.625, 9.6875, 9.625, 9.5, 9.4375, 9.75, 9.6875, 9.5625, 9.75, 9.5625, 9.8125, 9.9375, 9.75, 9.5625, 9.375, 9.4375, 9.5625, 9.4375, 9.5, 9.75, 9.6875, 9.5, 9.4375, 9.6875, 9.4375, 9.1875, 9.375, 9.3125, 9.125, 9.1875, 9.125, 9.1875, 9.4375, 9.25, 9.0625, 9.1875, 9.0625, 9.1875, 9.125, 9.25, 9.125, 9.125, 9.0625, 9.3125, 9.375, 9.5, 9.625, 9.375, 9.1875, 9.125, 9.25, 9.375, 9.25, 9.25, 9.25, 9.5625, 9.25, 9.1875, 9.1875, 9.25, 9.1875, 9.0625, 9.3125, 9.1875, 9.1875, 9.1875, 9.3125, 9.625, 10.0, 9.9375, 9.5, 9.625, 9.5, 9.4375, 9.3125, 9.3125, 9.1875, 9.375, 9.25, 9.25, 9.4375, 9.25, 9.0625, 9.3125, 9.1875, 9.1875, 9.25, 9.5625, 9.1875, 9.1875, 9.0625, 9.3125, 9.25, 9.125, 9.0625, 9.4375, 9.375, 9.375, 9.25, 9.3125, 9.5, 9.25, 9.5625, 9.375, 9.25, 9.3125, 9.25, 9.25, 9.25, 9.3125, 9.3125, 9.1875, 9.375, 9.1875, 9.3125, 9.375, 8.9375, 9.0, 9.1875, 9.0625, 9.0625, 9.0, 9.1875, 9.1875, 9.125, 9.1875, 8.9375, 9.1875, 9.0625, 9.0625, 9.125, 9.1875, 9.125, 9.1875, 9.1875, 9.125, 9.375, 9.1875, 9.25, 9.0625, 9.1875, 9.1875, 8.875, 9.0625, 9.1875, 9.1875, 9.25, 9.25, 9.5, 9.1875, 9.25, 8.8125, 9.125, 9.1875, 9.3125, 9.0625, 9.375, 9.1875, 8.9375, 9.0625, 9.0625, 9.125, 9.125, 9.0625, 9.125, 9.125, 8.8125, 9.125, 9.0, 9.125, 9.0625, 8.9375, 8.9375, 8.9375, 8.9375, 9.1875, 9.0, 9.25, 9.125, 8.9375, 9.125, 9.1875, 9.125, 9.125, 9.0625, 9.125, 9.0625, 9.0, 9.0, 9.1875, 9.125, 9.0, 9.0, 8.875, 8.875, 9.0625, 8.875, 9.3125, 9.625, 9.25, 9.125, 8.9375, 9.125, 9.125, 9.125, 9.25, 9.125, 9.1875, 8.8125, 9.0, 9.125, 9.0625, 9.125, 9.1875, 8.875, 8.9375, 9.0625, 9.0, 9.0625, 9.0625, 9.0625, 9.0, 9.0, 9.125, 8.8125, 9.0625, 9.0625, 9.0625, 8.8125, 8.9375, 9.0625, 9.0, 9.0625, 9.0, 8.8125, 9.0, 9.3125, 9.125, 9.125, 9.5, 9.3125, 9.25, 9.1875, 9.1875, 9.1875, 9.375, 9.5, 9.1875, 9.3125, 9.375, 9.3125, 9.1875, 9.125, 9.125, 9.25, 9.25, 9.0625, 8.9375, 9.0, 9.125, 9.0625, 9.125, 8.9375, 9.125, 9.3125, 9.125, 8.875, 9.125, 9.125, 8.875, 9.125, 9.375, 9.1875, 9.125, 9.6875, 9.3125, 9.5, 9.5, 9.25, 9.3125, 9.125, 9.1875, 9.375, 9.375, 9.3125, 9.4375, 9.3125, 9.5, 9.75, 9.375, 9.3125, 9.125, 9.3125, 9.25, 9.5625, 9.4375, 9.25, 9.25, 9.25, 9.5, 9.25, 9.5, 9.1875, 8.9375, 9.0, 9.0625, 9.1875, 9.25, 9.4375, 9.3125, 9.25, 9.0625, 9.1875, 9.1875, 9.3125, 9.0625, 8.9375, 8.9375, 9.25, 9.0625, 9.125, 9.125, 9.0625, 9.125, 9.6875, 9.375, 9.5625, 9.625, 9.625, 9.375, 9.25, 9.25, 9.375, 9.375, 9.125, 9.25, 9.4375, 9.375, 9.25, 9.125, 9.125, 9.375, 9.4375, 9.375, 9.0, 8.9375, 9.0625, 9.125, 9.1875, 9.0625, 8.875, 8.875, 9.0, 9.0, 9.1875, 9.125, 9.0, 8.8125, 8.9375, 9.0, 9.0625, 9.0, 9.0, 9.0625, 9.3125, 9.25, 9.125, 9.5, 9.5625, 9.5625, 9.25, 9.375, 9.5, 9.25, 9.25, 9.5625, 9.6875, 9.25, 9.25, 9.25, 9.4375, 9.375, 9.3125, 9.25, 9.1875, 9.375, 10.0, 9.6875, 9.6875, 9.4375, 9.375, 9.625, 9.25, 9.1875, 9.75, 9.5625, 9.25, 9.5625, 9.8125, 9.4375, 9.25, 9.1875, 9.125, 9.1875, 9.1875, 9.875, 9.8125, 9.375, 9.1875, 9.3125, 9.125, 9.0625, 9.125, 9.0625, 9.125, 9.25, 9.1875, 9.375, 9.25, 9.0, 9.125, 9.3125, 9.0625, 8.9375, 9.1875, 9.125, 9.0625, 9.0625, 9.5625, 9.375, 9.375, 9.3125, 9.75, 9.4375, 9.125, 9.5, 9.5625, 9.8125, 9.8125, 9.25, 9.875, 9.75, 9.0625, 9.375, 9.5625, 8.9375, 9.0625, 9.0, 9.25, 9.0625, 8.875, 9.0, 9.25, 9.5, 9.3125, 9.125, 9.25, 9.3125, 9.5625, 9.25, 9.0, 9.25, 9.5625, 9.9375, 9.25, 9.125, 9.0625, 9.0, 9.0625, 8.9375, 9.0, 9.25, 9.125, 9.3125, 9.375, 9.375, 9.125, 9.25, 9.375, 9.5, 9.3125, 9.6875, 10.0, 9.3125, 8.9375, 9.0625, 9.1875, 8.9375, 9.4375, 9.25, 9.25, 9.375, 9.5, 9.5, 9.125, 9.125, 9.375, 9.125, 9.0, 9.5, 9.5, 9.5, 9.3125, 9.4375, 9.0, 8.875, 9.0625, 9.0625, 9.0, 9.0, 9.1875, 9.125, 9.1875, 9.25, 9.375, 9.1875, 9.125, 9.1875, 9.375, 9.3125, 9.25, 9.3125, 9.5, 9.625, 9.5625, 9.6875, 9.5625, 9.5, 9.5, 9.375, 9.375, 9.375, 9.375, 9.4375, 9.375, 9.25, 9.1875, 9.375, 9.0625, 9.0625, 9.125, 9.125, 9.3125, 9.125, 9.0, 9.375, 9.0, 8.875, 9.1875, 9.0625, 9.125, 8.875, 9.0, 9.1875, 9.0, 8.9375, 9.0, 9.25, 9.25, 9.3125, 9.25, 9.125, 9.1875, 9.25, 9.3125, 9.1875, 9.4375, 9.5625, 9.1875, 9.125, 9.4375, 9.6875, 9.6875, 9.5, 9.375, 9.3125, 9.0625, 9.125, 9.1875, 9.375, 9.25, 9.3125, 9.1875, 8.9375, 9.125, 9.375, 9.4375, 9.625, 9.3125, 8.8125, 9.25, 9.125, 9.5, 9.5625, 9.0625, 9.4375, 9.1875, 9.3125, 9.4375, 9.125, 9.125, 9.25, 8.9375, 9.25, 9.0625, 9.3125, 9.25, 9.1875, 9.4375, 9.1875, 9.125, 9.375, 9.3125, 9.0, 9.3125, 9.0625, 9.5625, 9.6875, 9.5, 9.4375, 9.1875, 9.0625, 9.5, 9.25, 9.375, 9.25, 9.4375, 9.5, 9.5625, 9.0, 9.0625, 9.0625, 9.25, 8.875, 9.1875, 9.125, 9.1875, 9.25, 9.0, 9.0, 9.0, 9.5, 9.4375, 9.8125, 9.6875, 9.5, 9.1875, 9.1875, 9.1875, 9.125, 9.1875, 9.5, 9.25, 8.875, 9.0625, 9.25, 9.5, 9.3125, 9.1875, 9.3125, 9.3125, 9.75, 9.4375, 9.5, 9.3125, 9.1875, 9.3125, 9.375, 9.25, 9.1875, 9.1875, 9.4375, 9.625, 9.6875, 9.4375, 9.5, 9.25, 9.3125, 9.375, 9.125, 9.125, 9.125, 9.1875, 9.0625, 9.0, 9.1875, 9.375, 9.5, 9.375, 9.25, 9.125, 9.3125, 9.0625, 9.0, 9.1875, 9.3125, 8.9375, 9.3125, 9.125, 9.6875, 9.75, 9.3125, 9.375, 9.4375, 9.125, 9.0625, 9.125, 9.1875, 9.4375, 9.5, 9.5625, 9.5625, 9.625, 9.375, 9.25, 9.25, 9.5625, 9.375, 9.5625, 9.5, 9.625, 9.75, 9.5, 9.75, 9.4375, 9.5, 9.625, 9.625, 9.4375, 9.75, 9.875, 9.9375, 9.9375, 10.125, 9.4375, 9.375, 9.375, 9.5625, 9.5625, 9.5, 9.875, 9.4375, 9.6875, 9.375, 9.625, 9.625, 9.75, 9.9375, 10.0, 9.9375, 9.875, 9.625, 9.75, 9.625, 9.125, 9.5, 9.375, 9.5, 9.5625, 9.75, 9.4375, 9.375, 9.5, 9.4375, 9.3125, 9.375, 9.25, 9.3125, 9.4375, 9.3125, 9.0625, 9.125, 9.125, 9.3125, 10.5625, 10.5625, 9.25, 9.375, 9.6875, 9.8125, 9.9375, 9.625, 9.5, 9.5625, 9.5, 9.5, 9.375, 9.125, 9.25, 9.0625, 9.75, 10.0625, 9.6875, 9.3125, 9.1875, 9.125, 9.25, 9.0, 10.1875, 10.5625, 10.1875, 10.25, 10.625, 11.25, 11.0625, 10.875, 11.625, 11.375, 11.5625, 11.5, 10.8125, 10.5, 10.875, 10.4375, 10.6875, 10.6875, 10.5625, 10.9375, 10.3125, 10.125, 10.625, 10.625, 10.375, 9.875, 9.9375, 10.375, 10.8125, 10.3125, 9.875, 10.1875, 10.6875, 11.125, 9.8125, 9.5, 9.4375, 10.3125, 10.25, 10.4375, 10.4375, 10.0625, 9.875, 10.0625, 10.1875, 10.3125, 10.375, 11.0625, 9.0625, 8.9375, 9.1875, 9.125, 9.125, 9.25, 9.0625, 9.125, 9.3125, 9.3125, 9.4375, 9.4375, 9.0625, 9.125, 9.0625, 9.1875, 9.5625, 9.4375, 9.4375, 9.5, 9.5625, 9.25, 9.125, 9.125, 9.125, 9.1875, 9.3125, 9.3125, 9.4375, 9.3125, 9.5625, 9.6875, 9.6875, 9.4375, 9.4375, 9.6875, 9.375, 9.25, 9.25, 9.4375, 10.75, 10.625, 10.5625, 11.125, 11.0625, 10.75, 10.6875, 10.25, 10.5, 10.625, 10.375, 11.125, 10.625, 10.8125, 10.1875, 10.4375, 10.25, 10.125, 10.0, 10.125, 9.5625, 10.1875, 9.5625, 9.4375, 9.6875, 9.5625, 9.3125, 9.1875, 9.0, 8.875, 9.125, 8.9375, 9.125, 9.0, 9.125, 8.9375, 9.0, 9.1875, 9.3125, 9.0625, 9.1875, 9.0, 9.0, 9.25, 9.1875, 9.5625, 9.4375, 9.3125, 9.5, 9.4375, 9.25, 9.5625, 9.75, 9.5625, 9.6875, 9.6875, 9.8125, 9.9375, 10.0625, 10.125, 9.8125, 9.6875, 9.8125, 9.875, 9.75, 9.625, 9.5625, 9.5, 9.1875, 9.625, 9.6875, 9.875, 10.0, 10.1875, 10.3125, 10.375, 10.125, 9.8125, 9.375, 9.25, 9.3125, 9.375, 9.4375, 9.75, 9.8125, 9.625, 9.3125, 9.1875, 9.1875, 9.25, 9.5625, 9.5625, 9.1875, 9.1875, 9.5625, 9.1875, 9.4375, 9.375, 9.375, 9.3125, 9.1875, 9.625, 9.4375, 9.1875, 9.75, 9.5625, 9.5625, 9.8125, 9.5625, 9.25, 9.3125, 9.25, 9.9375, 10.6875, 10.0, 10.25, 10.0, 9.875, 9.8125, 9.875, 9.875, 9.5625, 9.625, 9.5625, 9.75, 9.9375, 9.625, 9.75, 9.375, 9.625, 9.75, 9.875, 9.75, 9.75, 9.875, 9.8125, 9.4375, 9.9375, 9.8125, 9.8125, 9.8125, 10.5, 11.0625, 10.25, 10.3125, 10.0625, 10.0625, 10.125, 9.5, 9.9375, 9.9375, 9.125, 9.125, 8.9375, 9.0, 9.125, 9.1875, 9.1875, 9.625, 9.125, 9.25, 9.25, 9.375, 9.5, 9.5, 9.625, 9.5625, 9.5625, 9.375, 9.25, 9.3125, 9.3125, 9.625, 9.5625, 9.5, 9.5, 10.0, 11.375, 11.25, 10.875, 10.6875, 10.4375, 10.875, 11.0, 10.875, 10.9375, 11.25, 10.8125, 10.875, 10.75, 10.5625, 10.375, 10.375, 10.8125, 10.4375, 10.5, 10.4375, 10.25, 10.8125, 11.1875, 11.0625, 11.1875, 10.6875, 10.625, 10.0625, 10.0625, 9.875, 9.4375, 9.5, 9.4375, 9.6875, 9.875, 9.5625, 9.4375, 9.375, 9.0625, 9.375, 9.375, 9.3125, 9.6875, 9.625, 9.5625, 9.625, 9.5625, 9.5625, 9.75, 9.9375, 9.75, 9.625, 10.75, 12.6875, 12.75, 12.4375, 11.875, 11.5625, 11.4375, 11.3125, 11.125, 11.5625, 10.8125, 10.625, 10.9375, 11.0, 10.5, 11.0, 10.625, 11.3125, 11.1875, 11.125, 11.125, 11.0, 11.125, 11.25, 11.125, 11.3125, 11.4375, 11.1875, 11.1875, 11.25, 11.3125, 11.5, 11.1875, 10.3125, 9.8125, 10.0625, 10.25, 10.875, 10.5, 10.0625, 10.0625, 10.125, 10.75, 11.125, 11.1875, 11.3125, 10.6875, 11.0, 10.875, 10.625, 10.625, 10.9375, 10.75, 10.875, 10.8125, 10.8125, 10.5, 10.625, 10.4375, 10.75, 10.3125, 10.4375, 10.3125, 10.5625, 10.8125, 10.625, 10.25, 10.3125, 10.4375, 10.25, 10.4375, 10.5, 10.3125, 9.8125, 9.875, 9.9375, 10.125, 9.875, 10.0, 9.875, 10.1875, 10.0625, 9.75, 9.5625, 9.6875, 9.5625, 9.625, 9.8125, 10.25, 10.125, 10.125, 10.125, 9.9375, 10.0625, 10.0625, 9.8125, 9.875, 10.25, 9.875, 10.25, 9.75, 10.0, 10.0, 10.0, 9.6875, 10.1875, 10.0625, 10.0625, 9.625, 10.25, 9.9375, 10.0, 10.125, 9.8125, 10.0, 10.375, 10.4375, 10.3125, 10.375, 10.1875, 9.9375, 9.625, 9.875, 10.25, 10.0625, 10.125, 10.1875, 10.3125, 10.25, 10.5625, 10.25, 10.3125, 10.1875, 10.1875, 10.1875, 9.9375, 10.0625, 10.0, 9.8125, 9.9375, 9.9375, 10.75, 10.1875, 9.9375, 10.3125, 10.125, 10.0625, 10.4375, 10.4375, 10.4375, 9.9375, 10.125, 10.0, 9.9375, 10.25, 10.125, 10.25, 9.9375, 9.625, 9.875, 10.0625, 10.25, 9.9375, 10.0625, 9.6875, 10.25, 10.4375, 10.0, 9.9375, 10.1875, 9.75, 9.9375, 9.8125, 10.4375, 10.75, 10.625, 10.4375, 9.875, 9.125, 9.3125, 9.125, 9.375, 9.625, 10.0, 10.625, 10.5, 10.8125, 10.5625, 10.9375, 12.375, 9.8125, 9.25, 9.5, 9.5625, 9.75, 9.625, 9.625, 9.8125, 10.125, 9.75, 9.5625, 9.375, 9.5, 9.625, 9.5, 9.75, 9.875, 9.6875, 9.75, 10.0625, 10.5625, 11.1875, 11.0, 10.8125, 11.0, 11.0625, 11.0625, 10.9375, 11.0625, 10.8125, 11.1875, 11.125, 11.3125, 11.125, 11.0, 11.0625, 11.0, 10.5, 11.375, 11.0, 10.5625, 10.875, 10.9375, 11.0625, 11.0, 10.6875, 10.75, 10.5625, 10.75, 10.8125, 10.125, 10.375, 10.375, 10.8125, 10.1875, 10.5, 10.1875, 10.5, 10.4375, 10.1875, 10.3125, 10.0625, 10.3125, 10.125, 10.1875, 10.1875, 10.625, 10.75, 10.9375, 10.8125, 10.75, 11.3125, 11.3125, 10.75, 10.6875, 10.5, 10.5, 10.6875, 10.6875, 10.5625, 10.0625, 10.125, 9.9375, 10.0, 10.125, 9.75, 9.875, 9.875, 9.6875, 9.875, 9.75, 9.6875, 9.75, 9.8125, 10.0, 9.875, 9.75, 10.25, 10.1875, 10.1875, 10.0625, 10.1875, 10.3125, 9.6875, 9.3125, 11.25, 11.5625, 11.25, 10.5, 10.5625, 10.6875, 10.9375, 11.1875, 10.9375, 10.6875, 10.9375, 10.0625, 9.625, 9.875, 9.75, 9.8125, 10.0625, 9.9375, 10.0625, 10.125, 10.4375, 10.25, 10.375, 10.75, 10.6875, 11.0625, 11.3125, 10.5625, 10.375, 10.5, 10.625, 10.625, 11.125, 11.0625, 10.625, 10.25, 9.75, 9.75, 9.75, 9.9375, 10.25, 9.6875, 9.4375, 9.3125, 9.6875, 9.9375, 10.0, 10.0, 9.9375, 9.8125, 10.0625, 9.75, 9.6875, 9.8125, 9.875, 9.6875, 10.125, 9.8125, 9.75, 9.8125, 10.0625, 9.75, 9.9375, 10.0625, 9.9375, 9.875, 9.875, 9.8125, 9.6875, 9.875, 9.75, 9.875, 9.9375, 9.8125, 9.9375, 9.75, 9.5625, 9.4375, 10.625, 11.9375, 10.4375, 9.75, 9.875, 9.8125, 9.6875, 9.6875, 9.6875, 9.3125, 9.6875, 9.75, 9.875, 9.875, 9.625, 9.625, 9.625, 9.75, 10.1875, 9.75, 10.0, 10.0625, 9.8125, 9.6875, 9.9375, 10.0625, 10.125, 10.6875, 10.1875, 10.0625, 10.1875, 10.25, 10.1875, 10.0625, 10.0, 10.0625, 10.0, 10.25, 10.3125, 10.3125, 10.125, 9.625, 9.9375, 10.1875, 10.375, 10.125, 10.375, 10.4375, 10.3125, 10.5, 10.1875, 10.4375, 9.5, 9.5, 9.375, 9.1875, 9.625, 9.375, 9.5625, 9.875, 9.5625, 10.0, 10.25, 10.0625, 9.8125, 9.5, 9.375, 9.5, 9.5625, 9.8125, 10.0625, 9.6875, 9.75, 9.75, 9.625, 9.75, 10.0625, 10.0, 9.8125, 9.875, 9.75, 10.0, 9.6875, 9.5, 9.5, 9.5, 9.6875, 10.25, 10.4375, 10.75, 10.625, 10.4375, 10.25, 9.8125, 9.8125, 9.6875, 9.9375, 9.6875, 9.625, 9.6875, 9.75, 9.875, 9.75, 9.625, 9.8125, 9.75, 9.75, 9.9375, 9.875, 10.0625, 10.1875, 10.25, 10.3125, 10.125, 9.8125, 9.875, 9.8125, 10.125]","[59904.0, 11072.0, 9216.0, 10432.0, 10432.0, 10432.0, 11072.0, 12544.0, 12544.0, 12544.0, 10432.0, 13376.0, 12544.0, 9792.0, 11840.0, 9792.0, 10432.0, 11840.0, 11072.0, 10432.0, 11072.0, 11072.0, 11072.0, 12544.0, 11072.0, 11840.0, 11072.0, 11840.0, 11840.0, 12544.0, 11840.0, 13376.0, 12544.0, 11072.0, 12544.0, 12544.0, 13376.0, 13376.0, 13376.0, 14272.0, 14272.0, 14272.0, 11840.0, 16128.0, 13376.0, 14272.0, 13376.0, 14272.0, 12544.0, 11840.0, 13376.0, 13376.0, 12544.0, 11840.0, 12544.0, 13376.0, 14272.0, 14272.0, 14272.0, 12544.0, 12544.0, 14272.0, 13376.0, 13376.0, 14272.0, 15168.0, 13376.0, 13376.0, 13376.0, 13376.0, 13376.0, 12544.0, 11840.0, 13376.0, 14272.0, 16128.0, 11840.0, 11072.0, 11840.0, 11840.0, 11840.0, 11840.0, 15168.0, 15168.0, 11840.0, 14272.0, 13376.0, 13376.0, 13376.0, 18304.0, 11840.0, 11840.0, 13376.0, 14272.0, 15168.0, 14272.0, 14272.0, 15168.0, 14272.0, 14272.0, 11840.0, 15168.0, 14272.0, 16128.0, 16128.0, 20736.0, 20736.0, 18304.0, 18304.0, 16128.0, 16128.0, 14272.0, 23424.0, 18304.0, 17152.0, 18304.0, 14272.0, 15168.0, 34304.0, 20736.0, 12544.0, 14272.0, 15168.0, 19456.0, 16128.0, 14272.0, 12544.0, 17152.0, 11840.0, 12544.0, 12544.0, 15168.0, 19456.0, 19456.0, 19456.0, 19456.0, 19456.0, 16128.0, 16128.0, 16128.0, 15168.0, 16128.0, 15168.0, 13376.0, 12544.0, 17152.0, 16128.0, 14272.0, 17152.0, 14272.0, 18304.0, 20736.0, 17152.0, 14272.0, 11840.0, 12544.0, 14272.0, 12544.0, 13376.0, 17152.0, 16128.0, 13376.0, 12544.0, 16128.0, 12544.0, 9792.0, 11840.0, 11072.0, 9216.0, 9792.0, 9216.0, 9792.0, 12544.0, 10432.0, 8640.0, 9792.0, 8640.0, 9792.0, 9216.0, 10432.0, 9216.0, 9216.0, 8640.0, 11072.0, 11840.0, 13376.0, 15168.0, 11840.0, 9792.0, 9216.0, 10432.0, 11840.0, 10432.0, 10432.0, 10432.0, 14272.0, 10432.0, 9792.0, 9792.0, 10432.0, 9792.0, 8640.0, 11072.0, 9792.0, 9792.0, 9792.0, 11072.0, 15168.0, 22016.0, 20736.0, 13376.0, 15168.0, 13376.0, 12544.0, 11072.0, 11072.0, 9792.0, 11840.0, 10432.0, 10432.0, 12544.0, 10432.0, 8640.0, 11072.0, 9792.0, 9792.0, 10432.0, 14272.0, 9792.0, 9792.0, 8640.0, 11072.0, 10432.0, 9216.0, 8640.0, 12544.0, 11840.0, 11840.0, 10432.0, 11072.0, 13376.0, 10432.0, 14272.0, 11840.0, 10432.0, 11072.0, 10432.0, 10432.0, 10432.0, 11072.0, 11072.0, 9792.0, 11840.0, 9792.0, 11072.0, 11840.0, 7616.0, 8128.0, 9792.0, 8640.0, 8640.0, 8128.0, 9792.0, 9792.0, 9216.0, 9792.0, 7616.0, 9792.0, 8640.0, 8640.0, 9216.0, 9792.0, 9216.0, 9792.0, 9792.0, 9216.0, 11840.0, 9792.0, 10432.0, 8640.0, 9792.0, 9792.0, 7168.0, 8640.0, 9792.0, 9792.0, 10432.0, 10432.0, 13376.0, 9792.0, 10432.0, 6720.0, 9216.0, 9792.0, 11072.0, 8640.0, 11840.0, 9792.0, 7616.0, 8640.0, 8640.0, 9216.0, 9216.0, 8640.0, 9216.0, 9216.0, 6720.0, 9216.0, 8128.0, 9216.0, 8640.0, 7616.0, 7616.0, 7616.0, 7616.0, 9792.0, 8128.0, 10432.0, 9216.0, 7616.0, 9216.0, 9792.0, 9216.0, 9216.0, 8640.0, 9216.0, 8640.0, 8128.0, 8128.0, 9792.0, 9216.0, 8128.0, 8128.0, 7168.0, 7168.0, 8640.0, 7168.0, 11072.0, 15168.0, 10432.0, 9216.0, 7616.0, 9216.0, 9216.0, 9216.0, 10432.0, 9216.0, 9792.0, 6720.0, 8128.0, 9216.0, 8640.0, 9216.0, 9792.0, 7168.0, 7616.0, 8640.0, 8128.0, 8640.0, 8640.0, 8640.0, 8128.0, 8128.0, 9216.0, 6720.0, 8640.0, 8640.0, 8640.0, 6720.0, 7616.0, 8640.0, 8128.0, 8640.0, 8128.0, 6720.0, 8128.0, 11072.0, 9216.0, 9216.0, 13376.0, 11072.0, 10432.0, 9792.0, 9792.0, 9792.0, 11840.0, 13376.0, 9792.0, 11072.0, 11840.0, 11072.0, 9792.0, 9216.0, 9216.0, 10432.0, 10432.0, 8640.0, 7616.0, 8128.0, 9216.0, 8640.0, 9216.0, 7616.0, 9216.0, 11072.0, 9216.0, 7168.0, 9216.0, 9216.0, 7168.0, 9216.0, 11840.0, 9792.0, 9216.0, 16128.0, 11072.0, 13376.0, 13376.0, 10432.0, 11072.0, 9216.0, 9792.0, 11840.0, 11840.0, 11072.0, 12544.0, 11072.0, 13376.0, 17152.0, 11840.0, 11072.0, 9216.0, 11072.0, 10432.0, 14272.0, 12544.0, 10432.0, 10432.0, 10432.0, 13376.0, 10432.0, 13376.0, 9792.0, 7616.0, 8128.0, 8640.0, 9792.0, 10432.0, 12544.0, 11072.0, 10432.0, 8640.0, 9792.0, 9792.0, 11072.0, 8640.0, 7616.0, 7616.0, 10432.0, 8640.0, 9216.0, 9216.0, 8640.0, 9216.0, 16128.0, 11840.0, 14272.0, 15168.0, 15168.0, 11840.0, 10432.0, 10432.0, 11840.0, 11840.0, 9216.0, 10432.0, 12544.0, 11840.0, 10432.0, 9216.0, 9216.0, 11840.0, 12544.0, 11840.0, 8128.0, 7616.0, 8640.0, 9216.0, 9792.0, 8640.0, 7168.0, 7168.0, 8128.0, 8128.0, 9792.0, 9216.0, 8128.0, 6720.0, 7616.0, 8128.0, 8640.0, 8128.0, 8128.0, 8640.0, 11072.0, 10432.0, 9216.0, 13376.0, 14272.0, 14272.0, 10432.0, 11840.0, 13376.0, 10432.0, 10432.0, 14272.0, 16128.0, 10432.0, 10432.0, 10432.0, 12544.0, 11840.0, 11072.0, 10432.0, 9792.0, 11840.0, 22016.0, 16128.0, 16128.0, 12544.0, 11840.0, 15168.0, 10432.0, 9792.0, 17152.0, 14272.0, 10432.0, 14272.0, 18304.0, 12544.0, 10432.0, 9792.0, 9216.0, 9792.0, 9792.0, 19456.0, 18304.0, 11840.0, 9792.0, 11072.0, 9216.0, 8640.0, 9216.0, 8640.0, 9216.0, 10432.0, 9792.0, 11840.0, 10432.0, 8128.0, 9216.0, 11072.0, 8640.0, 7616.0, 9792.0, 9216.0, 8640.0, 8640.0, 14272.0, 11840.0, 11840.0, 11072.0, 17152.0, 12544.0, 9216.0, 13376.0, 14272.0, 18304.0, 18304.0, 10432.0, 19456.0, 17152.0, 8640.0, 11840.0, 14272.0, 7616.0, 8640.0, 8128.0, 10432.0, 8640.0, 7168.0, 8128.0, 10432.0, 13376.0, 11072.0, 9216.0, 10432.0, 11072.0, 14272.0, 10432.0, 8128.0, 10432.0, 14272.0, 20736.0, 10432.0, 9216.0, 8640.0, 8128.0, 8640.0, 7616.0, 8128.0, 10432.0, 9216.0, 11072.0, 11840.0, 11840.0, 9216.0, 10432.0, 11840.0, 13376.0, 11072.0, 16128.0, 22016.0, 11072.0, 7616.0, 8640.0, 9792.0, 7616.0, 12544.0, 10432.0, 10432.0, 11840.0, 13376.0, 13376.0, 9216.0, 9216.0, 11840.0, 9216.0, 8128.0, 13376.0, 13376.0, 13376.0, 11072.0, 12544.0, 8128.0, 7168.0, 8640.0, 8640.0, 8128.0, 8128.0, 9792.0, 9216.0, 9792.0, 10432.0, 11840.0, 9792.0, 9216.0, 9792.0, 11840.0, 11072.0, 10432.0, 11072.0, 13376.0, 15168.0, 14272.0, 16128.0, 14272.0, 13376.0, 13376.0, 11840.0, 11840.0, 11840.0, 11840.0, 12544.0, 11840.0, 10432.0, 9792.0, 11840.0, 8640.0, 8640.0, 9216.0, 9216.0, 11072.0, 9216.0, 8128.0, 11840.0, 8128.0, 7168.0, 9792.0, 8640.0, 9216.0, 7168.0, 8128.0, 9792.0, 8128.0, 7616.0, 8128.0, 10432.0, 10432.0, 11072.0, 10432.0, 9216.0, 9792.0, 10432.0, 11072.0, 9792.0, 12544.0, 14272.0, 9792.0, 9216.0, 12544.0, 16128.0, 16128.0, 13376.0, 11840.0, 11072.0, 8640.0, 9216.0, 9792.0, 11840.0, 10432.0, 11072.0, 9792.0, 7616.0, 9216.0, 11840.0, 12544.0, 15168.0, 11072.0, 6720.0, 10432.0, 9216.0, 13376.0, 14272.0, 8640.0, 12544.0, 9792.0, 11072.0, 12544.0, 9216.0, 9216.0, 10432.0, 7616.0, 10432.0, 8640.0, 11072.0, 10432.0, 9792.0, 12544.0, 9792.0, 9216.0, 11840.0, 11072.0, 8128.0, 11072.0, 8640.0, 14272.0, 16128.0, 13376.0, 12544.0, 9792.0, 8640.0, 13376.0, 10432.0, 11840.0, 10432.0, 12544.0, 13376.0, 14272.0, 8128.0, 8640.0, 8640.0, 10432.0, 7168.0, 9792.0, 9216.0, 9792.0, 10432.0, 8128.0, 8128.0, 8128.0, 13376.0, 12544.0, 18304.0, 16128.0, 13376.0, 9792.0, 9792.0, 9792.0, 9216.0, 9792.0, 13376.0, 10432.0, 7168.0, 8640.0, 10432.0, 13376.0, 11072.0, 9792.0, 11072.0, 11072.0, 17152.0, 12544.0, 13376.0, 11072.0, 9792.0, 11072.0, 11840.0, 10432.0, 9792.0, 9792.0, 12544.0, 15168.0, 16128.0, 12544.0, 13376.0, 10432.0, 11072.0, 11840.0, 9216.0, 9216.0, 9216.0, 9792.0, 8640.0, 8128.0, 9792.0, 11840.0, 13376.0, 11840.0, 10432.0, 9216.0, 11072.0, 8640.0, 8128.0, 9792.0, 11072.0, 7616.0, 11072.0, 9216.0, 16128.0, 17152.0, 11072.0, 11840.0, 12544.0, 9216.0, 8640.0, 9216.0, 9792.0, 12544.0, 13376.0, 14272.0, 14272.0, 15168.0, 11840.0, 10432.0, 10432.0, 14272.0, 11840.0, 14272.0, 13376.0, 15168.0, 17152.0, 13376.0, 17152.0, 12544.0, 13376.0, 15168.0, 15168.0, 12544.0, 17152.0, 19456.0, 20736.0, 20736.0, 24960.0, 12544.0, 11840.0, 11840.0, 14272.0, 14272.0, 13376.0, 19456.0, 12544.0, 16128.0, 11840.0, 15168.0, 15168.0, 17152.0, 20736.0, 22016.0, 20736.0, 19456.0, 15168.0, 17152.0, 15168.0, 9216.0, 13376.0, 11840.0, 13376.0, 14272.0, 17152.0, 12544.0, 11840.0, 13376.0, 12544.0, 11072.0, 11840.0, 10432.0, 11072.0, 12544.0, 11072.0, 8640.0, 9216.0, 9216.0, 11072.0, 38656.0, 38656.0, 10432.0, 11840.0, 16128.0, 18304.0, 20736.0, 15168.0, 13376.0, 14272.0, 13376.0, 13376.0, 11840.0, 9216.0, 10432.0, 8640.0, 17152.0, 23424.0, 16128.0, 11072.0, 9792.0, 9216.0, 10432.0, 8128.0, 26624.0, 38656.0, 26624.0, 28288.0, 41216.0, 76800.0, 63744.0, 52992.0, 112128.0, 87040.0, 105472.0, 98816.0, 49664.0, 36352.0, 52992.0, 34304.0, 43776.0, 43776.0, 38656.0, 56320.0, 30208.0, 24960.0, 41216.0, 41216.0, 32128.0, 19456.0, 20736.0, 32128.0, 49664.0, 30208.0, 19456.0, 26624.0, 43776.0, 68096.0, 18304.0, 13376.0, 12544.0, 30208.0, 28288.0, 34304.0, 34304.0, 23424.0, 19456.0, 23424.0, 26624.0, 30208.0, 32128.0, 63744.0, 8640.0, 7616.0, 9792.0, 9216.0, 9216.0, 10432.0, 8640.0, 9216.0, 11072.0, 11072.0, 12544.0, 12544.0, 8640.0, 9216.0, 8640.0, 9792.0, 14272.0, 12544.0, 12544.0, 13376.0, 14272.0, 10432.0, 9216.0, 9216.0, 9216.0, 9792.0, 11072.0, 11072.0, 12544.0, 11072.0, 14272.0, 16128.0, 16128.0, 12544.0, 12544.0, 16128.0, 11840.0, 10432.0, 10432.0, 12544.0, 46592.0, 41216.0, 38656.0, 68096.0, 63744.0, 46592.0, 43776.0, 28288.0, 36352.0, 41216.0, 32128.0, 68096.0, 41216.0, 49664.0, 26624.0, 34304.0, 28288.0, 24960.0, 22016.0, 24960.0, 14272.0, 26624.0, 14272.0, 12544.0, 16128.0, 14272.0, 11072.0, 9792.0, 8128.0, 7168.0, 9216.0, 7616.0, 9216.0, 8128.0, 9216.0, 7616.0, 8128.0, 9792.0, 11072.0, 8640.0, 9792.0, 8128.0, 8128.0, 10432.0, 9792.0, 14272.0, 12544.0, 11072.0, 13376.0, 12544.0, 10432.0, 14272.0, 17152.0, 14272.0, 16128.0, 16128.0, 18304.0, 20736.0, 23424.0, 24960.0, 18304.0, 16128.0, 18304.0, 19456.0, 17152.0, 15168.0, 14272.0, 13376.0, 9792.0, 15168.0, 16128.0, 19456.0, 22016.0, 26624.0, 30208.0, 32128.0, 24960.0, 18304.0, 11840.0, 10432.0, 11072.0, 11840.0, 12544.0, 17152.0, 18304.0, 15168.0, 11072.0, 9792.0, 9792.0, 10432.0, 14272.0, 14272.0, 9792.0, 9792.0, 14272.0, 9792.0, 12544.0, 11840.0, 11840.0, 11072.0, 9792.0, 15168.0, 12544.0, 9792.0, 17152.0, 14272.0, 14272.0, 18304.0, 14272.0, 10432.0, 11072.0, 10432.0, 20736.0, 43776.0, 22016.0, 28288.0, 22016.0, 19456.0, 18304.0, 19456.0, 19456.0, 14272.0, 15168.0, 14272.0, 17152.0, 20736.0, 15168.0, 17152.0, 11840.0, 15168.0, 17152.0, 19456.0, 17152.0, 17152.0, 19456.0, 18304.0, 12544.0, 20736.0, 18304.0, 18304.0, 18304.0, 36352.0, 63744.0, 28288.0, 30208.0, 23424.0, 23424.0, 24960.0, 13376.0, 20736.0, 20736.0, 9216.0, 9216.0, 7616.0, 8128.0, 9216.0, 9792.0, 9792.0, 15168.0, 9216.0, 10432.0, 10432.0, 11840.0, 13376.0, 13376.0, 15168.0, 14272.0, 14272.0, 11840.0, 10432.0, 11072.0, 11072.0, 15168.0, 14272.0, 13376.0, 13376.0, 22016.0, 87040.0, 76800.0, 52992.0, 43776.0, 34304.0, 52992.0, 59904.0, 52992.0, 56320.0, 76800.0, 49664.0, 52992.0, 46592.0, 38656.0, 32128.0, 32128.0, 49664.0, 34304.0, 36352.0, 34304.0, 28288.0, 49664.0, 72192.0, 63744.0, 72192.0, 43776.0, 41216.0, 23424.0, 23424.0, 19456.0, 12544.0, 13376.0, 12544.0, 16128.0, 19456.0, 14272.0, 12544.0, 11840.0, 8640.0, 11840.0, 11840.0, 11072.0, 16128.0, 15168.0, 14272.0, 15168.0, 14272.0, 14272.0, 17152.0, 20736.0, 17152.0, 15168.0, 46592.0, 323584.0, 346112.0, 252928.0, 144384.0, 105472.0, 92672.0, 81920.0, 68096.0, 105472.0, 49664.0, 41216.0, 56320.0, 59904.0, 36352.0, 59904.0, 41216.0, 81920.0, 72192.0, 68096.0, 68096.0, 59904.0, 68096.0, 76800.0, 68096.0, 81920.0, 92672.0, 72192.0, 72192.0, 76800.0, 81920.0, 98816.0, 72192.0, 30208.0, 18304.0, 23424.0, 28288.0, 52992.0, 36352.0, 23424.0, 23424.0, 24960.0, 46592.0, 68096.0, 72192.0, 81920.0, 43776.0, 59904.0, 52992.0, 41216.0, 41216.0, 56320.0, 46592.0, 52992.0, 49664.0, 49664.0, 36352.0, 41216.0, 34304.0, 46592.0, 30208.0, 34304.0, 30208.0, 38656.0, 49664.0, 41216.0, 28288.0, 30208.0, 34304.0, 28288.0, 34304.0, 36352.0, 30208.0, 18304.0, 19456.0, 20736.0, 24960.0, 19456.0, 22016.0, 19456.0, 26624.0, 23424.0, 17152.0, 14272.0, 16128.0, 14272.0, 15168.0, 18304.0, 28288.0, 24960.0, 24960.0, 24960.0, 20736.0, 23424.0, 23424.0, 18304.0, 19456.0, 28288.0, 19456.0, 28288.0, 17152.0, 22016.0, 22016.0, 22016.0, 16128.0, 26624.0, 23424.0, 23424.0, 15168.0, 28288.0, 20736.0, 22016.0, 24960.0, 18304.0, 22016.0, 32128.0, 34304.0, 30208.0, 32128.0, 26624.0, 20736.0, 15168.0, 19456.0, 28288.0, 23424.0, 24960.0, 26624.0, 30208.0, 28288.0, 38656.0, 28288.0, 30208.0, 26624.0, 26624.0, 26624.0, 20736.0, 23424.0, 22016.0, 18304.0, 20736.0, 20736.0, 46592.0, 26624.0, 20736.0, 30208.0, 24960.0, 23424.0, 34304.0, 34304.0, 34304.0, 20736.0, 24960.0, 22016.0, 20736.0, 28288.0, 24960.0, 28288.0, 20736.0, 15168.0, 19456.0, 23424.0, 28288.0, 20736.0, 23424.0, 16128.0, 28288.0, 34304.0, 22016.0, 20736.0, 26624.0, 17152.0, 20736.0, 18304.0, 34304.0, 46592.0, 41216.0, 34304.0, 19456.0, 9216.0, 11072.0, 9216.0, 11840.0, 15168.0, 22016.0, 41216.0, 36352.0, 49664.0, 38656.0, 56320.0, 237568.0, 18304.0, 10432.0, 13376.0, 14272.0, 17152.0, 15168.0, 15168.0, 18304.0, 24960.0, 17152.0, 14272.0, 11840.0, 13376.0, 15168.0, 13376.0, 17152.0, 19456.0, 16128.0, 17152.0, 23424.0, 38656.0, 72192.0, 59904.0, 49664.0, 59904.0, 63744.0, 63744.0, 56320.0, 63744.0, 49664.0, 72192.0, 68096.0, 81920.0, 68096.0, 59904.0, 63744.0, 59904.0, 36352.0, 87040.0, 59904.0, 38656.0, 52992.0, 56320.0, 63744.0, 59904.0, 43776.0, 46592.0, 38656.0, 46592.0, 49664.0, 24960.0, 32128.0, 32128.0, 49664.0, 26624.0, 36352.0, 26624.0, 36352.0, 34304.0, 26624.0, 30208.0, 23424.0, 30208.0, 24960.0, 26624.0, 26624.0, 41216.0, 46592.0, 56320.0, 49664.0, 46592.0, 81920.0, 81920.0, 46592.0, 43776.0, 36352.0, 36352.0, 43776.0, 43776.0, 38656.0, 23424.0, 24960.0, 20736.0, 