last_val_loss,dataset,ul2,causal_denoisers,noncausal_masking,causal_divider,s_divider,r_divider,x_divider,randomize_denoiser_settings,randomize_mask_width,no_special_tokens,alternate_denoisers,progressive_tasks,model_scale,depth,width,num_params,num_non_embedding_params,num_heads,lr_mult,linear_value,seed,run_num,max_epochs,max_steps,max_tokens,max_time_seconds,gpu_capacity_scalar,train_loss_causal,train_pplx_causal,train_acc_causal,train_loss_s,train_pplx_s,train_loss_r,train_pplx_r,train_loss_x,train_pplx_x,train_acc_x_causal,train_acc_r_causal,train_acc_s_causal,train_acc_x_masked,train_acc_r_masked,train_acc_s_masked,val_loss_causal,val_pplx_causal,val_acc_causal,val_loss_s,val_pplx_s,val_loss_r,val_pplx_r,val_loss_x,val_pplx_x,grad_norm,cumulative_time,tokens_seen,epoch,batch_size,seq_length,learning_rate,weight_decay
3.109375,fineweb,false,false,false,1.0,0.0,0.0,0.0,false,false,false,false,false,5.23113258028692,21,1024,240683029,137648149,16,0.9,false,1600,1,1.0,1000000000,1000000000000,1000000000,1.9,"[10.9375, 6.9375, 6.625, 6.25, 6.1875, 6.09375, 5.9375, 5.84375, 5.8125, 5.625, 5.6875, 5.71875, 5.5, 5.40625, 5.40625, 5.28125, 5.3125, 5.1875, 5.28125, 5.15625, 5.25, 5.125, 5.21875, 4.96875, 4.96875, 4.9375, 4.875, 5.0, 4.96875, 5.0, 4.90625, 4.78125, 4.8125, 4.84375, 4.78125, 4.84375, 4.84375, 4.75, 4.78125, 4.65625, 4.75, 4.6875, 4.78125, 4.6875, 4.59375, 4.625, 4.65625, 4.53125, 4.5625, 4.65625, 4.59375, 4.5, 4.65625, 4.46875, 4.375, 4.46875, 4.4375, 4.46875, 4.5, 4.46875, 4.40625, 4.5, 4.34375, 4.4375, 4.5625, 4.5, 4.375, 4.5, 4.4375, 4.4375, 4.34375, 4.375, 4.4375, 4.375, 4.28125, 4.21875, 4.28125, 4.25, 4.3125, 4.0625, 4.1875, 4.25, 4.21875, 4.09375, 4.0625, 4.25, 4.28125, 4.09375, 4.1875, 4.03125, 4.125, 4.0625, 4.21875, 4.125, 4.03125, 4.15625, 3.96875, 4.09375, 4.0625, 4.0, 4.03125, 4.0, 3.859375, 3.890625, 4.15625, 4.0625, 3.859375, 4.0625, 3.9375, 3.953125, 4.0, 3.828125, 3.96875, 3.96875, 3.90625, 3.859375, 3.859375, 3.890625, 3.828125, 3.8125, 3.84375, 3.859375, 3.84375, 3.859375, 3.828125, 3.828125, 3.828125, 3.765625, 3.875, 3.859375, 3.78125, 3.828125, 3.875, 3.8125, 3.90625, 3.8125, 3.671875, 3.703125, 3.5625, 3.765625, 3.84375, 3.859375, 3.75, 3.765625, 3.828125, 3.734375, 3.6875, 3.75, 3.71875, 3.71875, 3.8125, 3.703125, 3.671875, 3.84375, 3.78125, 3.5625, 3.703125, 3.640625, 3.609375, 3.59375, 3.71875, 3.625, 3.703125, 3.59375, 3.765625, 3.65625, 3.703125, 3.65625, 3.71875, 3.640625, 3.5625, 3.765625, 3.59375, 3.625, 3.625, 3.6875, 3.609375, 3.59375, 3.6875, 3.671875, 3.515625, 3.59375, 3.53125, 3.5625, 3.578125, 3.59375, 3.625, 3.640625, 3.59375, 3.59375, 3.46875, 3.65625, 3.5625, 3.65625, 3.546875, 3.609375, 3.609375, 3.625, 3.578125, 3.5, 3.59375, 3.578125, 3.421875, 3.578125, 3.59375, 3.453125, 3.40625, 3.5, 3.625, 3.59375, 3.515625, 3.421875, 3.4375, 3.5625, 3.609375, 3.59375, 3.46875, 3.484375, 3.46875, 3.5625, 3.59375, 3.53125, 3.546875, 3.5, 3.46875, 3.53125, 3.453125, 3.59375, 3.46875, 3.515625, 3.453125, 3.609375, 3.40625, 3.4375, 3.375, 3.375, 3.453125, 3.53125, 3.5, 3.515625, 3.4375, 3.53125, 3.515625, 3.4375, 3.4375, 3.359375, 3.421875, 3.375, 3.359375, 3.421875, 3.453125, 3.375, 3.359375, 3.390625, 3.4375, 3.4375, 3.4375, 3.5625, 3.46875, 3.453125, 3.40625, 3.421875, 3.34375, 3.5625, 3.359375, 3.4375, 3.421875, 3.4375, 3.390625, 3.5, 3.453125, 3.328125, 3.46875, 3.484375, 3.359375, 3.453125, 3.265625, 3.40625, 3.5, 3.359375, 3.4375, 3.375, 3.375, 3.375, 3.40625, 3.421875, 3.53125, 3.578125, 3.34375, 3.5, 3.421875, 3.40625, 3.421875, 3.390625, 3.484375, 3.375, 3.375, 3.328125, 3.34375, 3.375, 3.234375, 3.328125, 3.375, 3.359375, 3.328125, 3.375, 3.40625, 3.328125, 3.40625, 3.265625, 3.34375, 3.375, 3.375, 3.40625, 3.3125, 3.21875, 3.34375, 3.375, 3.375, 3.3125, 3.328125, 3.390625, 3.328125, 3.296875, 3.265625, 3.34375, 3.375, 3.34375, 3.25, 3.21875, 3.359375, 3.296875, 3.390625, 3.265625, 3.421875, 3.359375, 3.21875, 3.390625, 3.40625, 3.34375, 3.234375, 3.359375, 3.21875, 3.265625, 3.34375, 3.359375, 3.359375, 3.28125, 3.3125, 3.359375, 3.28125, 3.296875, 3.28125, 3.25, 3.234375, 3.265625, 3.34375, 3.28125, 3.28125, 3.171875, 3.21875, 3.265625, 3.21875, 3.1875, 3.234375, 3.234375, 3.390625, 3.296875, 3.3125, 3.234375, 3.265625, 3.15625, 3.203125, 3.328125, 3.296875, 3.28125, 3.171875, 3.34375, 3.25, 3.21875, 3.34375, 3.21875, 3.328125, 3.203125, 3.234375, 3.21875, 3.25, 3.1875, 3.359375, 3.3125, 3.203125, 3.15625, 3.234375, 3.140625, 3.140625, 3.25, 3.171875, 3.359375, 3.109375, 3.21875, 3.203125, 3.046875, 3.3125, 3.265625, 3.203125, 3.34375, 3.140625, 3.203125, 3.171875, 3.171875, 3.296875, 3.171875, 3.296875, 3.203125, 3.15625, 3.203125, 3.125, 3.171875, 3.28125, 3.21875, 3.078125, 3.203125, 3.109375, 3.359375, 3.234375, 3.203125, 3.140625, 3.109375, 3.109375, 3.171875, 3.125, 3.109375, 3.078125, 3.140625, 3.109375, 3.09375, 3.28125, 3.234375, 3.140625, 3.125, 3.21875, 3.21875, 3.1875, 3.03125, 3.09375, 3.109375, 3.203125, 3.15625, 3.21875, 3.15625, 3.09375, 3.109375, 3.125, 3.078125, 2.953125, 3.203125, 3.015625, 3.25, 3.21875, 3.09375, 3.0625, 3.140625, 3.171875, 3.03125, 3.140625, 3.0, 3.21875, 3.15625, 3.15625, 3.109375, 3.140625, 3.046875, 3.078125, 3.078125, 2.984375, 3.109375, 3.09375, 3.109375, 3.0625, 2.90625, 2.890625, 2.96875, 3.09375, 3.015625, 3.078125, 3.078125, 2.96875, 3.234375, 3.125, 3.03125, 3.15625, 2.984375, 2.96875, 2.921875, 2.96875, 3.078125, 3.140625, 3.078125, 3.0625, 3.015625, 3.078125, 3.109375, 3.015625, 3.015625, 3.078125, 2.953125, 3.046875, 3.09375, 3.078125, 3.109375, 3.078125, 2.90625, 3.125, 3.046875, 3.046875, 2.9375, 3.015625, 3.046875, 3.015625, 3.0, 3.015625, 2.921875, 2.9375, 3.015625, 2.875, 2.984375, 3.03125, 3.0, 2.984375, 3.046875, 2.96875, 3.0, 3.0, 3.046875, 2.984375, 3.0, 3.0625, 2.984375, 2.90625, 2.921875, 2.96875, 2.921875, 2.953125, 3.109375, 2.890625, 2.984375, 2.96875, 3.03125, 3.140625, 2.953125, 2.953125, 2.875, 3.09375, 2.9375, 2.90625, 3.0, 3.015625, 2.953125, 3.03125, 3.046875, 2.984375, 2.921875, 2.9375, 3.015625, 2.96875, 2.90625, 3.046875, 2.953125, 3.0625, 2.921875, 2.921875, 2.890625]","[56320.0, 1032.0, 756.0, 520.0, 488.0, 444.0, 380.0, 346.0, 334.0, 278.0, 296.0, 304.0, 245.0, 223.0, 223.0, 197.0, 203.0, 179.0, 197.0, 174.0, 191.0, 168.0, 185.0, 144.0, 144.0, 140.0, 131.0, 149.0, 144.0, 149.0, 135.0, 119.5, 123.0, 127.0, 119.5, 127.0, 127.0, 115.5, 119.5, 105.5, 115.5, 108.5, 119.5, 108.5, 99.0, 102.0, 105.5, 93.0, 96.0, 105.5, 99.0, 90.0, 105.5, 87.5, 79.5, 87.5, 84.5, 87.5, 90.0, 87.5, 82.0, 90.0, 77.0, 84.5, 96.0, 90.0, 79.5, 90.0, 84.5, 84.5, 77.0, 79.5, 84.5, 79.5, 72.5, 68.0, 72.5, 70.0, 74.5, 58.25, 66.0, 70.0, 68.0, 60.0, 58.25, 70.0, 72.5, 60.0, 66.0, 56.25, 62.0, 58.25, 68.0, 62.0, 56.25, 64.0, 53.0, 60.0, 58.25, 54.75, 56.25, 54.75, 47.5, 49.0, 64.0, 58.25, 47.5, 58.25, 51.25, 52.25, 54.75, 46.0, 53.0, 53.0, 49.75, 47.5, 47.5, 49.0, 46.0, 45.25, 46.75, 47.5, 46.75, 47.5, 46.0, 46.0, 46.0, 43.25, 48.25, 47.5, 44.0, 46.0, 48.25, 45.25, 49.75, 45.25, 39.25, 40.5, 35.25, 43.25, 46.75, 47.5, 42.5, 43.25, 46.0, 42.0, 40.0, 42.5, 41.25, 41.25, 45.25, 40.5, 39.25, 46.75, 44.0, 35.25, 40.5, 38.25, 37.0, 36.5, 41.25, 37.5, 40.5, 36.5, 43.25, 38.75, 40.5, 38.75, 41.25, 38.25, 35.25, 43.25, 36.5, 37.5, 37.5, 40.0, 37.0, 36.5, 40.0, 39.25, 33.75, 36.5, 34.25, 35.25, 35.75, 36.5, 37.5, 38.25, 36.5, 36.5, 32.0, 38.75, 35.25, 38.75, 34.75, 37.0, 37.0, 37.5, 35.75, 33.25, 36.5, 35.75, 30.625, 35.75, 36.5, 31.625, 30.125, 33.25, 37.5, 36.5, 33.75, 30.625, 31.125, 35.25, 37.0, 36.5, 32.0, 32.5, 32.0, 35.25, 36.5, 34.25, 34.75, 33.25, 32.0, 34.25, 31.625, 36.5, 32.0, 33.75, 31.625, 37.0, 30.125, 31.125, 29.25, 29.25, 31.625, 34.25, 33.25, 33.75, 31.125, 34.25, 33.75, 31.125, 31.125, 28.75, 30.625, 29.25, 28.75, 30.625, 31.625, 29.25, 28.75, 29.75, 31.125, 31.125, 31.125, 35.25, 32.0, 31.625, 30.125, 30.625, 28.375, 35.25, 28.75, 31.125, 30.625, 31.125, 29.75, 33.25, 31.625, 27.875, 32.0, 32.5, 28.75, 31.625, 26.25, 30.125, 33.25, 28.75, 31.125, 29.25, 29.25, 29.25, 30.125, 30.625, 34.25, 35.75, 28.375, 33.25, 30.625, 30.125, 30.625, 29.75, 32.5, 29.25, 29.25, 27.875, 28.375, 29.25, 25.375, 27.875, 29.25, 28.75, 27.875, 29.25, 30.125, 27.875, 30.125, 26.25, 28.375, 29.25, 29.25, 30.125, 27.5, 25.0, 28.375, 29.25, 29.25, 27.5, 27.875, 29.75, 27.875, 27.0, 26.25, 28.375, 29.25, 28.375, 25.75, 25.0, 28.75, 27.0, 29.75, 26.25, 30.625, 28.75, 25.0, 29.75, 30.125, 28.375, 25.375, 28.75, 25.0, 26.25, 28.375, 28.75, 28.75, 26.625, 27.5, 28.75, 26.625, 27.0, 26.625, 25.75, 25.375, 26.25, 28.375, 26.625, 26.625, 23.875, 25.0, 26.25, 25.0, 24.25, 25.375, 25.375, 29.75, 27.0, 27.5, 25.375, 26.25, 23.5, 24.625, 27.875, 27.0, 26.625, 23.875, 28.375, 25.75, 25.0, 28.375, 25.0, 27.875, 24.625, 25.375, 25.0, 25.75, 24.25, 28.75, 27.5, 24.625, 23.5, 25.375, 23.125, 23.125, 25.75, 23.875, 28.75, 22.375, 25.0, 24.625, 21.0, 27.5, 26.25, 24.625, 28.375, 23.125, 24.625, 23.875, 23.875, 27.0, 23.875, 27.0, 24.625, 23.5, 24.625, 22.75, 23.875, 26.625, 25.0, 21.75, 24.625, 22.375, 28.75, 25.375, 24.625, 23.125, 22.375, 22.375, 23.875, 22.75, 22.375, 21.75, 23.125, 22.375, 22.125, 26.625, 25.375, 23.125, 22.75, 25.0, 25.0, 24.25, 20.75, 22.125, 22.375, 24.625, 23.5, 25.0, 23.5, 22.125, 22.375, 22.75, 21.75, 19.125, 24.625, 20.375, 25.75, 25.0, 22.125, 21.375, 23.125, 23.875, 20.75, 23.125, 20.125, 25.0, 23.5, 23.5, 22.375, 23.125, 21.0, 21.75, 21.75, 19.75, 22.375, 22.125, 22.375, 21.375, 18.25, 18.0, 19.5, 22.125, 20.375, 21.75, 21.75, 19.5, 25.375, 22.75, 20.75, 23.5, 19.75, 19.5, 18.625, 19.5, 21.75, 23.125, 21.75, 21.375, 20.375, 21.75, 22.375, 20.375, 20.375, 21.75, 19.125, 21.0, 22.125, 21.75, 22.375, 21.75, 18.25, 22.75, 21.0, 21.0, 18.875, 20.375, 21.0, 20.375, 20.125, 20.375, 18.625, 18.875, 20.375, 17.75, 19.75, 20.75, 20.125, 19.75, 21.0, 19.5, 20.125, 20.125, 21.0, 19.75, 20.125, 21.375, 19.75, 18.25, 18.625, 19.5, 18.625, 19.125, 22.375, 18.0, 19.75, 19.5, 20.75, 23.125, 19.125, 19.125, 17.75, 22.125, 18.875, 18.25, 20.125, 20.375, 19.125, 20.75, 21.0, 19.75, 18.625, 18.875, 20.375, 19.5, 18.25, 21.0, 19.125, 21.375, 18.625, 18.625, 18.0]","[1.6551906810491346e-05, 0.09146583825349808, 0.09315413236618042, 0.0966300293803215, 0.10776946693658829, 0.09464380145072937, 0.10563427209854126, 0.12571173906326294, 0.12466896325349808, 0.13693392276763916, 0.11304952204227448, 0.1123046875, 0.12362619489431381, 0.14572298526763916, 0.13703323900699615, 0.13670219480991364, 0.14338916540145874, 0.1248510330915451, 0.14631885290145874, 0.14347192645072937, 0.13292835652828217, 0.136818066239357, 0.14762645959854126, 0.1277807205915451, 0.17154395580291748, 0.16460871696472168, 0.15201270580291748, 0.14201536774635315, 0.14724576473236084, 0.14866922795772552, 0.15227754414081573, 0.1575741469860077, 0.16757149994373322, 0.14815612137317657, 0.14885130524635315, 0.14080707728862762, 0.162208691239357, 0.16351628303527832, 0.15022510290145874, 0.14977820217609406, 0.15735897421836853, 0.16502250730991364, 0.15292306244373322, 0.14650093019008636, 0.14420020580291748, 0.15965969860553741, 0.1748543381690979, 0.16052038967609406, 0.1589314043521881, 0.17131224274635315, 0.1845703125, 0.14651748538017273, 0.14694783091545105, 0.19873873889446259, 0.18859241902828217, 0.16727356612682343, 0.17530123889446259, 0.16326801478862762, 0.16659493744373322, 0.14918233454227448, 0.1819882094860077, 0.1825675368309021, 0.160056933760643, 0.17904198169708252, 0.16452595591545105, 0.16234110295772552, 0.16105005145072937, 0.16253972053527832, 0.17609573900699615, 0.1805150955915451, 0.15293961763381958, 0.17952197790145874, 0.17199085652828217, 0.17879369854927063, 0.16422802209854126, 0.20191670954227448, 0.18121027946472168, 0.18826138973236084, 0.17952197790145874, 0.19837459921836853, 0.19650423526763916, 0.19387248158454895, 0.19456766545772552, 0.19822563230991364, 0.16366524994373322, 0.18933726847171783, 0.17528469860553741, 0.18509997427463531, 0.18802966177463531, 0.19483248889446259, 0.1730005294084549, 0.19407111406326294, 0.17636056244373322, 0.18922139704227448, 0.19830839335918427, 0.19867253303527832, 0.17771781980991364, 0.17922404408454895, 0.187599316239357, 0.20674987137317657, 0.22752250730991364, 0.1935083419084549, 0.20754435658454895, 0.21265889704227448, 0.19134004414081573, 0.17789989709854126, 0.2080574631690979, 0.19572630524635315, 0.1814420074224472, 0.18121027946472168, 0.2003939300775528, 0.21969345211982727, 0.18087923526763916, 0.2126920074224472, 0.20178429782390594, 0.21040783822536469, 0.1949649155139923, 0.19758011400699615, 0.19349178671836853, 0.1902310699224472, 0.2047801911830902, 0.2051277756690979, 0.20479674637317657, 0.20286017656326294, 0.20891816914081573, 0.20812366902828217, 0.18423926830291748, 0.20474708080291748, 0.18390823900699615, 0.19880495965480804, 0.20906713604927063, 0.17647643387317657, 0.19877184927463531, 0.21641618013381958, 0.21537341177463531, 0.213966503739357, 0.22254039347171783, 0.20749470591545105, 0.2373046875, 0.1935579925775528, 0.214943066239357, 0.20011255145072937, 0.20789195597171783, 0.19182005524635315, 0.2040519118309021, 0.1980932205915451, 0.22409626841545105, 0.22207693755626678, 0.21232786774635315, 0.18890690803527832, 0.18511652946472168, 0.2151416838169098, 0.2087360918521881, 0.21620100736618042, 0.2103085219860077, 0.22518868744373322, 0.21918034553527832, 0.22767147421836853, 0.19417041540145874, 0.2195775955915451, 0.20516088604927063, 0.18417306244373322, 0.23978747427463531, 0.24068127572536469, 0.17662540078163147, 0.20622020959854126, 0.2072298675775528, 0.22391419112682343, 0.23007149994373322, 0.2237817794084549, 0.2029760330915451, 0.22225899994373322, 0.23263704776763916, 0.24468684196472168, 0.19933460652828217, 0.23904263973236084, 0.23699019849300385, 0.23682467639446259, 0.19309455156326294, 0.21754170954227448, 0.21964380145072937, 0.19867253303527832, 0.23033633828163147, 0.2112354338169098, 0.23518604040145874, 0.23002184927463531, 0.2316439300775528, 0.21418167650699615, 0.21717756986618042, 0.2314453125, 0.23790055513381958, 0.23593087494373322, 0.20832230150699615, 0.22052104771137238, 0.24109508097171783, 0.19484904408454895, 0.24273371696472168, 0.22340108454227448, 0.22459281980991364, 0.23050186038017273, 0.209861621260643, 0.21740929782390594, 0.24056541919708252, 0.21262580156326294, 0.21148371696472168, 0.24000264704227448, 0.2335474044084549, 0.22791975736618042, 0.24369372427463531, 0.2070809006690979, 0.22937633097171783, 0.22806872427463531, 0.21856792271137238, 0.21848517656326294, 0.20206567645072937, 0.19792769849300385, 0.2340274155139923, 0.22429488599300385, 0.249900683760643, 0.21247683465480804, 0.23987023532390594, 0.2117154449224472, 0.23311705887317657, 0.21328787505626678, 0.22720801830291748, 0.21495960652828217, 0.2285652756690979, 0.20499536395072937, 0.22103416919708252, 0.25544556975364685, 0.22808527946472168, 0.22901217639446259, 0.22659561038017273, 0.23192532360553741, 0.24822895228862762, 0.24718616902828217, 0.2234838455915451, 0.2305184006690979, 0.20276086032390594, 0.22134864330291748, 0.2621656656265259, 0.24134334921836853, 0.2394067794084549, 0.2145954668521881, 0.22030587494373322, 0.2414095550775528, 0.26681673526763916, 0.25023171305656433, 0.22419558465480804, 0.22477489709854126, 0.2542372941970825, 0.24064818024635315, 0.24826204776763916, 0.24645788967609406, 0.22166313230991364, 0.21095405519008636, 0.22904528677463531, 0.21926310658454895, 0.22547008097171783, 0.25120827555656433, 0.2268107831478119, 0.26653534173965454, 0.2310977280139923, 0.2204051911830902, 0.2471199631690979, 0.22212658822536469, 0.19529594480991364, 0.2316935956478119, 0.23346464335918427, 0.2473682463169098, 0.25589248538017273, 0.23619571328163147, 0.225486621260643, 0.2343253493309021, 0.23937366902828217, 0.23980402946472168, 0.24515029788017273, 0.2559090256690979, 0.23497086763381958, 0.2463420331478119, 0.25496557354927063, 0.2189982831478119, 0.22869770228862762, 0.2385791838169098, 0.23776814341545105, 0.23965506255626678, 0.2164492905139923, 0.23298464715480804, 0.2600470185279846, 0.2033236175775528, 0.22762182354927063, 0.2175748199224472, 0.23932401835918427, 0.243064746260643, 0.23204118013381958, 0.22940942645072937, 0.23669226467609406, 0.2623477280139923, 0.23733779788017273, 0.23440811038017273, 0.22879700362682343, 0.2661546468734741, 0.24798066914081573, 0.25642213225364685, 0.22396385669708252, 0.2611725330352783, 0.21775688230991364, 0.22712527215480804, 0.2354012131690979, 0.224708691239357, 0.21745894849300385, 0.24390889704227448, 0.23828125, 0.23849642276763916, 0.23957230150699615, 0.24950344860553741, 0.23589777946472168, 0.24738480150699615, 0.24041645228862762, 0.22265625, 0.21184785664081573, 0.22638042271137238, 0.2473185956478119, 0.22532111406326294, 0.2739174962043762, 0.23948954045772552, 0.22777079045772552, 0.23985368013381958, 0.26158633828163147, 0.22499006986618042, 0.22623145580291748, 0.22896252572536469, 0.24538202583789825, 0.2471199631690979, 0.2228052169084549, 0.2360798418521881, 0.24374337494373322, 0.22071968019008636, 0.22224245965480804, 0.2522841691970825, 0.23674193024635315, 0.238181933760643, 0.23363016545772552, 0.23814883828163147, 0.21851827204227448, 0.23450741171836853, 0.24617651104927063, 0.2323722243309021, 0.2503475844860077, 0.22550317645072937, 0.2292935699224472, 0.25301244854927063, 0.2272907793521881, 0.22992253303527832, 0.24955309927463531, 0.24544823169708252, 0.2356991469860077, 0.2553297281265259, 0.24880826473236084, 0.25408831238746643, 0.26130494475364685, 0.22950874269008636, 0.25872284173965454, 0.2190479338169098, 0.24069783091545105, 0.24021781980991364, 0.23132945597171783, 0.2519034743309021, 0.24657376110553741, 0.2482951581478119, 0.2386288344860077, 0.26087459921836853, 0.2464413344860077, 0.2522345185279846, 0.23748676478862762, 0.2641022205352783, 0.25236693024635315, 0.27726098895072937, 0.2632746398448944, 0.2457461655139923, 0.27517545223236084, 0.24437235295772552, 0.25710076093673706, 0.24935448169708252, 0.26363876461982727, 0.24035023152828217, 0.24160818755626678, 0.26042771339416504, 0.229392871260643, 0.24445511400699615, 0.23533500730991364, 0.241111621260643, 0.25905388593673706, 0.24625927209854126, 0.26282772421836853, 0.24827860295772552, 0.24094611406326294, 0.24673926830291748, 0.22790320217609406, 0.23372948169708252, 0.29421013593673706, 0.27330508828163147, 0.25729939341545105, 0.21393339335918427, 0.23871159553527832, 0.23687434196472168, 0.27462923526763916, 0.259964257478714, 0.25681939721107483, 0.23367981612682343, 0.21813757717609406, 0.23511983454227448, 0.26171875, 0.248146191239357, 0.21444649994373322, 0.24988414347171783, 0.26310911774635315, 0.2385791838169098, 0.25582626461982727, 0.2383309006690979, 0.23103152215480804, 0.25211864709854126, 0.21727688610553741, 0.227638378739357, 0.25387313961982727, 0.24920551478862762, 0.2433130294084549, 0.24172404408454895, 0.2294921875, 0.2356494963169098, 0.23003840446472168, 0.2679753601551056, 0.24417373538017273, 0.24309785664081573, 0.25481659173965454, 0.24089644849300385, 0.24149231612682343, 0.22551973164081573, 0.25642213225364685, 0.25799456238746643, 0.24452131986618042, 0.2502979338169098, 0.2604939043521881, 0.24735169112682343, 0.23991988599300385, 0.23881091177463531, 0.24817928671836853, 0.2233348786830902, 0.24157507717609406, 0.2386288344860077, 0.228515625, 0.2593352794647217, 0.25003311038017273, 0.25686904788017273, 0.2295418381690979, 0.24781514704227448, 0.24743445217609406, 0.23384533822536469, 0.2505296468734741, 0.28245827555656433, 0.29142943024635315, 0.22176244854927063, 0.26540982723236084, 0.25021517276763916, 0.2670981287956238, 0.2651946544647217, 0.25208553671836853, 0.2382315993309021, 0.24938757717609406, 0.2645491361618042, 0.24801376461982727, 0.25920286774635315, 0.2531779706478119, 0.2629435956478119, 0.27830377221107483, 0.23131290078163147, 0.26608845591545105, 0.2540055513381958, 0.2662705183029175, 0.2633242905139923, 0.23182600736618042, 0.2688360810279846, 0.23732124269008636, 0.24313095211982727, 0.2739340662956238, 0.2997053861618042, 0.25211864709854126, 0.24738480150699615, 0.24640823900699615, 0.23040254414081573, 0.2659725844860077, 0.2623642683029175, 0.26971331238746643, 0.2767644226551056, 0.23669226467609406, 0.2424357831478119, 0.23571570217609406, 0.2667008638381958, 0.23796676099300385, 0.2760857939720154, 0.25759732723236084, 0.245017871260643, 0.22902873158454895, 0.2681739926338196, 0.2569352388381958, 0.2829548418521881, 0.2502482831478119, 0.2437930405139923, 0.26072564721107483, 0.2614704668521881, 0.23225635290145874, 0.22326867282390594, 0.2798430919647217, 0.25413796305656433, 0.25865665078163147, 0.23275291919708252, 0.2678264081478119, 0.23849642276763916, 0.2669491469860077, 0.2719809412956238, 0.2625463604927063, 0.2542041838169098, 0.2572828531265259, 0.2333487868309021, 0.28111758828163147, 0.2660719156265259, 0.23197497427463531, 0.27673134207725525, 0.26160287857055664, 0.24510063230991364, 0.2682236433029175, 0.2877383530139923, 0.2711367905139923, 0.2612387537956238, 0.28273966908454895, 0.2762182354927063, 0.2524331212043762, 0.24299854040145874, 0.28518936038017273, 0.25196966528892517, 0.25231727957725525, 0.24271716177463531, 0.27292439341545105, 0.2503806948661804, 0.23253773152828217, 0.23415982723236084, 0.23957230150699615, 0.23561640083789825, 0.2331005036830902, 0.2701271176338196, 0.2311970293521881, 0.3040088713169098, 0.2317432463169098, 0.2731892168521881, 0.25314486026763916, 0.27136850357055664, 0.24884136021137238, 0.2197265625, 0.25096002221107483, 0.28767213225364685, 0.26471465826034546, 0.27808859944343567, 0.3022543787956238, 0.24781514704227448, 0.27423200011253357, 0.3032309412956238, 0.25183725357055664, 0.24369372427463531, 0.2643670439720154, 0.2739174962043762, 0.29010528326034546, 0.26368841528892517]","[10.9375, 9.375, 9.1875, 9.375, 9.3125, 9.5, 9.5, 9.4375, 9.875, 9.4375, 9.5625, 9.375, 9.4375, 9.5625, 9.4375, 9.4375, 9.4375, 9.75, 9.5625, 9.5, 9.625, 9.4375, 9.5, 9.4375, 9.5, 9.5, 9.375, 9.4375, 9.5, 9.4375, 9.4375, 9.5625, 9.5625, 9.4375, 9.5, 9.5625, 9.5, 9.5, 9.5625, 9.625, 9.5625, 9.625, 9.5625, 9.625, 9.5625, 9.75, 9.625, 9.625, 9.625, 9.625, 9.625, 9.625, 9.625, 9.75, 9.6875, 9.625, 9.625, 9.5, 9.625, 9.625, 9.625, 9.8125, 9.5625, 9.5625, 9.75, 9.5625, 9.6875, 9.8125, 10.0, 10.0625, 9.6875, 9.875, 9.9375, 9.625, 9.625, 9.6875, 9.625, 9.75, 9.75, 9.8125, 9.6875, 10.125, 10.125, 9.875, 9.9375, 10.125, 10.0625, 10.1875, 10.0625, 9.875, 9.8125, 9.9375, 9.875, 9.75, 9.9375, 9.75, 9.5625, 9.375, 9.5, 9.75, 9.6875, 9.6875, 9.625, 10.0, 9.875, 9.5625, 9.625, 9.625, 9.625, 9.6875, 9.6875, 9.5625, 9.75, 9.875, 9.9375, 9.625, 9.5625, 9.8125, 9.75, 9.8125, 9.75, 9.8125, 9.75, 9.625, 9.75, 9.5625, 9.75, 9.8125, 9.8125, 9.75, 9.8125, 9.625, 9.75, 9.625, 9.75, 9.6875, 9.6875, 9.75, 9.8125, 9.6875, 9.75, 9.6875, 9.6875, 9.75, 9.6875, 9.75, 9.875, 10.0, 9.8125, 9.75, 9.75, 9.75, 9.75, 9.8125, 9.6875, 9.8125, 9.75, 9.9375, 9.8125, 9.875, 9.6875, 9.8125, 9.75, 9.8125, 9.75, 9.625, 9.75, 9.75, 9.75, 9.8125, 9.8125, 9.875, 10.25, 10.25, 10.1875, 10.5625, 10.5, 10.5, 10.1875, 10.5625, 10.1875, 10.125, 10.25, 10.25, 10.5, 10.625, 10.5625, 10.5, 10.625, 10.875, 10.75, 10.625, 10.5625, 10.0, 9.875, 10.0625, 9.9375, 10.0, 10.0625, 10.0625, 10.0625, 10.125, 10.375, 10.25, 10.1875, 10.3125, 10.1875, 10.0625, 10.0, 10.0, 10.1875, 10.0625, 10.0625, 10.25, 10.125, 10.125, 10.375, 10.5, 10.75, 10.25, 10.125, 10.1875, 10.5, 10.3125, 10.4375, 10.1875, 10.1875, 10.5, 10.0, 9.9375, 10.1875, 10.125, 10.0625, 10.1875, 10.3125, 10.1875, 10.1875, 10.125, 10.0, 10.125, 10.1875, 10.1875, 10.1875, 10.25, 10.125, 10.3125, 10.1875, 10.3125, 10.25, 10.25, 10.3125, 10.3125, 10.4375, 10.375, 10.25, 10.25, 10.25, 10.1875, 10.1875, 10.4375, 10.375, 10.4375, 10.3125, 10.1875, 10.25, 10.25, 10.1875, 10.375, 10.3125, 10.375, 10.375, 10.4375, 10.1875, 10.4375, 10.5, 10.5625, 10.4375, 10.4375, 10.5, 10.3125, 10.1875, 10.125, 10.3125, 10.3125, 10.4375, 10.4375, 10.5625, 10.1875, 10.4375, 10.125, 10.25, 10.375, 10.1875, 10.5, 10.25, 10.3125, 10.3125, 10.4375, 10.4375, 10.3125, 10.4375, 10.375, 10.4375, 10.375, 10.25, 10.375, 10.25, 10.25, 10.1875, 10.125, 10.25, 10.3125, 10.25, 10.375, 10.4375, 10.1875, 10.3125, 10.4375, 10.25, 10.375, 10.25, 10.125, 10.3125, 10.3125, 10.4375, 10.1875, 10.25, 10.4375, 10.3125, 10.3125, 10.375, 10.25, 10.1875, 10.25, 10.1875, 10.3125, 10.375, 10.125, 10.25, 10.4375, 10.3125, 10.3125, 10.4375, 10.3125, 10.3125, 10.25, 10.25, 10.3125, 10.25, 10.1875, 10.3125, 10.25, 10.1875, 10.25, 10.1875, 10.3125, 10.1875, 10.25, 10.125, 10.3125, 10.125, 10.3125, 10.3125, 10.3125, 10.375, 10.25, 10.1875, 10.1875, 10.1875, 10.25, 10.1875, 10.3125, 10.1875, 10.125, 10.25, 10.375, 10.3125, 10.125, 10.125, 10.3125, 10.1875, 10.125, 10.1875, 10.1875, 10.1875, 10.125, 10.25, 10.1875, 10.125, 10.25, 10.25, 10.25, 10.1875, 10.25, 10.3125, 10.1875, 10.3125, 10.1875, 10.3125, 10.3125, 10.3125, 10.375, 10.125, 10.1875, 10.3125, 10.25, 10.375, 10.3125, 10.25, 10.1875, 10.125, 10.125, 10.25, 10.125, 10.25, 10.25, 10.1875, 10.25, 10.25, 10.1875, 10.125, 10.25, 10.125, 10.125, 10.25, 10.25, 10.1875, 10.25, 10.3125, 10.25, 10.25, 10.1875, 10.375, 10.25, 10.4375, 10.1875, 10.125, 10.25, 10.25, 10.25, 10.1875, 10.1875, 10.25, 10.25, 10.375, 10.1875, 10.25, 10.3125, 10.25, 10.1875, 10.3125, 10.3125, 10.25, 10.25, 10.3125, 10.25, 10.3125, 10.125, 10.1875, 10.3125, 10.5, 10.375, 10.625, 10.4375, 10.3125, 10.5, 10.3125, 10.1875, 10.3125, 10.3125, 10.3125, 10.4375, 10.375, 10.1875, 10.5625, 10.4375, 10.4375, 10.5, 10.5, 10.5625, 10.5625, 10.5625, 10.375, 10.3125, 10.25, 10.4375, 10.625, 10.5, 10.5625, 10.5625, 10.5625, 10.5625, 10.6875, 10.5625, 10.5625, 10.4375, 10.5625, 10.4375, 10.5625, 10.5625, 10.5, 10.4375, 10.5625, 10.6875, 10.5, 10.75, 10.625, 10.625, 10.625, 10.625, 10.5, 10.5, 10.5, 10.6875, 10.75, 10.6875, 10.75, 10.8125, 10.5625, 11.0, 10.75, 10.75, 11.0, 10.75, 10.875, 10.6875, 10.5, 10.625, 10.75, 10.625, 10.75, 10.6875, 10.625, 10.75, 10.8125, 10.6875, 10.5625, 10.6875, 10.5625, 10.5625, 10.625, 10.6875, 10.5625, 10.5, 10.6875, 10.5625, 10.75, 10.5, 10.4375, 10.5, 10.5625, 10.625, 10.625, 10.5, 10.625, 10.5625, 10.4375, 10.625, 10.5, 10.625, 10.5625, 10.6875, 10.3125, 10.5, 10.5, 10.4375, 10.4375, 10.625, 10.4375, 10.5625, 10.75, 10.5625]","[56320.0, 11840.0, 9792.0, 11840.0, 11072.0, 13376.0, 13376.0, 12544.0, 19456.0, 12544.0, 14272.0, 11840.0, 12544.0, 14272.0, 12544.0, 12544.0, 12544.0, 17152.0, 14272.0, 13376.0, 15168.0, 12544.0, 13376.0, 12544.0, 13376.0, 13376.0, 11840.0, 12544.0, 13376.0, 12544.0, 12544.0, 14272.0, 14272.0, 12544.0, 13376.0, 14272.0, 13376.0, 13376.0, 14272.0, 15168.0, 14272.0, 15168.0, 14272.0, 15168.0, 14272.0, 17152.0, 15168.0, 15168.0, 15168.0, 15168.0, 15168.0, 15168.0, 15168.0, 17152.0, 16128.0, 15168.0, 15168.0, 13376.0, 15168.0, 15168.0, 15168.0, 18304.0, 14272.0, 14272.0, 17152.0, 14272.0, 16128.0, 18304.0, 22016.0, 23424.0, 16128.0, 19456.0, 20736.0, 15168.0, 15168.0, 16128.0, 15168.0, 17152.0, 17152.0, 18304.0, 16128.0, 24960.0, 24960.0, 19456.0, 20736.0, 24960.0, 23424.0, 26624.0, 23424.0, 19456.0, 18304.0, 20736.0, 19456.0, 17152.0, 20736.0, 17152.0, 14272.0, 11840.0, 13376.0, 17152.0, 16128.0, 16128.0, 15168.0, 22016.0, 19456.0, 14272.0, 15168.0, 15168.0, 15168.0, 16128.0, 16128.0, 14272.0, 17152.0, 19456.0, 20736.0, 15168.0, 14272.0, 18304.0, 17152.0, 18304.0, 17152.0, 18304.0, 17152.0, 15168.0, 17152.0, 14272.0, 17152.0, 18304.0, 18304.0, 17152.0, 18304.0, 15168.0, 17152.0, 15168.0, 17152.0, 16128.0, 16128.0, 17152.0, 18304.0, 16128.0, 17152.0, 16128.0, 16128.0, 17152.0, 16128.0, 17152.0, 19456.0, 22016.0, 18304.0, 17152.0, 17152.0, 17152.0, 17152.0, 18304.0, 16128.0, 18304.0, 17152.0, 20736.0, 18304.0, 19456.0, 16128.0, 18304.0, 17152.0, 18304.0, 17152.0, 15168.0, 17152.0, 17152.0, 17152.0, 18304.0, 18304.0, 19456.0, 28288.0, 28288.0, 26624.0, 38656.0, 36352.0, 36352.0, 26624.0, 38656.0, 26624.0, 24960.0, 28288.0, 28288.0, 36352.0, 41216.0, 38656.0, 36352.0, 41216.0, 52992.0, 46592.0, 41216.0, 38656.0, 22016.0, 19456.0, 23424.0, 20736.0, 22016.0, 23424.0, 23424.0, 23424.0, 24960.0, 32128.0, 28288.0, 26624.0, 30208.0, 26624.0, 23424.0, 22016.0, 22016.0, 26624.0, 23424.0, 23424.0, 28288.0, 24960.0, 24960.0, 32128.0, 36352.0, 46592.0, 28288.0, 24960.0, 26624.0, 36352.0, 30208.0, 34304.0, 26624.0, 26624.0, 36352.0, 22016.0, 20736.0, 26624.0, 24960.0, 23424.0, 26624.0, 30208.0, 26624.0, 26624.0, 24960.0, 22016.0, 24960.0, 26624.0, 26624.0, 26624.0, 28288.0, 24960.0, 30208.0, 26624.0, 30208.0, 28288.0, 28288.0, 30208.0, 30208.0, 34304.0, 32128.0, 28288.0, 28288.0, 28288.0, 26624.0, 26624.0, 34304.0, 32128.0, 34304.0, 30208.0, 26624.0, 28288.0, 28288.0, 26624.0, 32128.0, 30208.0, 32128.0, 32128.0, 34304.0, 26624.0, 34304.0, 36352.0, 38656.0, 34304.0, 34304.0, 36352.0, 30208.0, 26624.0, 24960.0, 30208.0, 30208.0, 34304.0, 34304.0, 38656.0, 26624.0, 34304.0, 24960.0, 28288.0, 32128.0, 26624.0, 36352.0, 28288.0, 30208.0, 30208.0, 34304.0, 34304.0, 30208.0, 34304.0, 32128.0, 34304.0, 32128.0, 28288.0, 32128.0, 28288.0, 28288.0, 26624.0, 24960.0, 28288.0, 30208.0, 28288.0, 32128.0, 34304.0, 26624.0, 30208.0, 34304.0, 28288.0, 32128.0, 28288.0, 24960.0, 30208.0, 30208.0, 34304.0, 26624.0, 28288.0, 34304.0, 30208.0, 30208.0, 32128.0, 28288.0, 26624.0, 28288.0, 26624.0, 30208.0, 32128.0, 24960.0, 28288.0, 34304.0, 30208.0, 30208.0, 34304.0, 30208.0, 30208.0, 28288.0, 28288.0, 30208.0, 28288.0, 26624.0, 30208.0, 28288.0, 26624.0, 28288.0, 26624.0, 30208.0, 26624.0, 28288.0, 24960.0, 30208.0, 24960.0, 30208.0, 30208.0, 30208.0, 32128.0, 28288.0, 26624.0, 26624.0, 26624.0, 28288.0, 26624.0, 30208.0, 26624.0, 24960.0, 28288.0, 32128.0, 30208.0, 24960.0, 24960.0, 30208.0, 26624.0, 24960.0, 26624.0, 26624.0, 26624.0, 24960.0, 28288.0, 26624.0, 24960.0, 28288.0, 28288.0, 28288.0, 26624.0, 28288.0, 30208.0, 26624.0, 30208.0, 26624.0, 30208.0, 30208.0, 30208.0, 32128.0, 24960.0, 26624.0, 30208.0, 28288.0, 32128.0, 30208.0, 28288.0, 26624.0, 24960.0, 24960.0, 28288.0, 24960.0, 28288.0, 28288.0, 26624.0, 28288.0, 28288.0, 26624.0, 24960.0, 28288.0, 24960.0, 24960.0, 28288.0, 28288.0, 26624.0, 28288.0, 30208.0, 28288.0, 28288.0, 26624.0, 32128.0, 28288.0, 34304.0, 26624.0, 24960.0, 28288.0, 28288.0, 28288.0, 26624.0, 26624.0, 28288.0, 28288.0, 32128.0, 26624.0, 28288.0, 30208.0, 28288.0, 26624.0, 30208.0, 30208.0, 28288.0, 28288.0, 30208.0, 28288.0, 30208.0, 24960.0, 26624.0, 30208.0, 36352.0, 32128.0, 41216.0, 34304.0, 30208.0, 36352.0, 30208.0, 26624.0, 30208.0, 30208.0, 30208.0, 34304.0, 32128.0, 26624.0, 38656.0, 34304.0, 34304.0, 36352.0, 36352.0, 38656.0, 38656.0, 38656.0, 32128.0, 30208.0, 28288.0, 34304.0, 41216.0, 36352.0, 38656.0, 38656.0, 38656.0, 38656.0, 43776.0, 38656.0, 38656.0, 34304.0, 38656.0, 34304.0, 38656.0, 38656.0, 36352.0, 34304.0, 38656.0, 43776.0, 36352.0, 46592.0, 41216.0, 41216.0, 41216.0, 41216.0, 36352.0, 36352.0, 36352.0, 43776.0, 46592.0, 43776.0, 46592.0, 49664.0, 38656.0, 59904.0, 46592.0, 46592.0, 59904.0, 46592.0, 52992.0, 43776.0, 36352.0, 41216.0, 46592.0, 41216.0, 46592.0, 43776.0, 41216.0, 46592.0, 49664.0, 43776.0, 38656.0, 43776.0, 38656.0, 38656.0, 41216.0, 43776.0, 38656.0, 36352.0, 43776.0, 38656.0, 46592.0, 36352.0, 34304.0, 36352.0, 38656.0, 41216.0, 41216.0, 36352.0, 41216.0, 38656.0, 34304.0, 41216.0, 36352.0, 41216.0, 38656.0, 43776.0, 30208.0, 36352.0, 36352.0, 34304.0, 34304.0, 41216.0, 34304.0, 38656.0, 46592.0, 38656.0]","[10.9375, 9.375, 9.1875, 9.3125, 9.25, 9.4375, 9.4375, 9.375, 9.4375, 9.375, 9.5, 9.3125, 9.4375, 9.5, 9.3125, 9.3125, 9.375, 9.5625, 9.375, 9.3125, 9.375, 9.375, 9.4375, 9.3125, 9.4375, 9.375, 9.1875, 9.3125, 9.3125, 9.25, 9.1875, 9.375, 9.375, 9.1875, 9.3125, 9.3125, 9.3125, 9.3125, 9.375, 9.3125, 9.25, 9.25, 9.25, 9.3125, 9.25, 9.375, 9.25, 9.3125, 9.3125, 9.25, 9.3125, 9.3125, 9.3125, 9.375, 9.375, 9.3125, 9.3125, 9.25, 9.3125, 9.3125, 9.25, 9.4375, 9.4375, 9.3125, 9.4375, 9.1875, 9.375, 9.3125, 9.4375, 9.4375, 9.375, 9.5625, 9.4375, 9.3125, 9.375, 9.375, 9.375, 9.375, 9.3125, 9.375, 9.375, 9.5, 9.375, 9.1875, 9.4375, 9.4375, 9.375, 9.5625, 9.375, 9.375, 9.25, 9.375, 9.4375, 9.3125, 9.375, 9.4375, 9.3125, 9.25, 9.25, 9.375, 9.25, 9.375, 9.3125, 9.375, 9.5, 9.25, 9.3125, 9.3125, 9.25, 9.3125, 9.375, 9.3125, 9.3125, 9.375, 9.4375, 9.3125, 9.25, 9.4375, 9.375, 9.3125, 9.5, 9.4375, 9.3125, 9.3125, 9.4375, 9.3125, 9.3125, 9.25, 9.3125, 9.25, 9.3125, 9.1875, 9.3125, 9.25, 9.25, 9.25, 9.25, 9.3125, 9.5, 9.3125, 9.375, 9.375, 9.3125, 9.3125, 9.3125, 9.25, 9.3125, 9.5, 9.375, 9.375, 9.4375, 9.3125, 9.3125, 9.5, 9.4375, 9.5, 9.4375, 9.4375, 9.4375, 9.4375, 9.3125, 9.5, 9.4375, 9.4375, 9.4375, 9.375, 9.5625, 9.375, 9.5, 9.625, 9.5, 9.375, 9.625, 9.5625, 9.5, 9.625, 9.5625, 9.5, 9.375, 9.625, 9.4375, 9.4375, 9.4375, 9.5, 9.75, 9.9375, 9.6875, 9.75, 9.8125, 10.0, 10.0, 9.8125, 9.75, 9.3125, 9.1875, 9.375, 9.25, 9.3125, 9.4375, 9.375, 9.4375, 9.5625, 9.625, 9.6875, 9.5, 9.5625, 9.5, 9.375, 9.3125, 9.25, 9.375, 9.25, 9.3125, 9.5, 9.375, 9.375, 9.4375, 9.5625, 9.8125, 9.3125, 9.3125, 9.375, 9.5625, 9.4375, 9.4375, 9.4375, 9.375, 9.5, 9.25, 9.1875, 9.3125, 9.25, 9.25, 9.375, 9.375, 9.25, 9.3125, 9.3125, 9.25, 9.3125, 9.375, 9.375, 9.4375, 9.375, 9.3125, 9.4375, 9.3125, 9.4375, 9.375, 9.375, 9.375, 9.3125, 9.4375, 9.4375, 9.25, 9.375, 9.375, 9.3125, 9.375, 9.5, 9.5, 9.5625, 9.5, 9.5, 9.375, 9.4375, 9.4375, 9.4375, 9.5, 9.5625, 9.5, 9.625, 9.3125, 9.5, 9.625, 9.6875, 9.5625, 9.625, 9.5625, 9.5625, 9.375, 9.3125, 9.4375, 9.5, 9.5625, 9.5, 9.5625, 9.3125, 9.4375, 9.375, 9.5, 9.625, 9.4375, 9.5625, 9.4375, 9.625, 9.5, 9.5625, 9.5, 9.4375, 9.5625, 9.4375, 9.5, 9.4375, 9.375, 9.5, 9.4375, 9.4375, 9.375, 9.375, 9.375, 9.375, 9.25, 9.375, 9.4375, 9.3125, 9.4375, 9.4375, 9.25, 9.4375, 9.3125, 9.3125, 9.375, 9.5, 9.4375, 9.25, 9.3125, 9.4375, 9.3125, 9.4375, 9.375, 9.5, 9.4375, 9.375, 9.375, 9.5, 9.4375, 9.375, 9.4375, 9.5625, 9.5625, 9.4375, 9.625, 9.5, 9.5, 9.5, 9.625, 9.625, 9.5, 9.4375, 9.5, 9.5, 9.375, 9.5625, 9.4375, 9.5, 9.375, 9.5, 9.4375, 9.5625, 9.4375, 9.5625, 9.5, 9.5625, 9.5, 9.4375, 9.4375, 9.375, 9.4375, 9.5, 9.5625, 9.5625, 9.375, 9.4375, 9.5, 9.5, 9.5, 9.4375, 9.3125, 9.5, 9.4375, 9.375, 9.4375, 9.4375, 9.4375, 9.375, 9.4375, 9.4375, 9.3125, 9.4375, 9.375, 9.4375, 9.375, 9.375, 9.4375, 9.375, 9.4375, 9.375, 9.5, 9.5, 9.4375, 9.5625, 9.375, 9.375, 9.5, 9.4375, 9.5625, 9.5, 9.5, 9.375, 9.375, 9.3125, 9.5, 9.4375, 9.5, 9.5, 9.4375, 9.4375, 9.5625, 9.5625, 9.5, 9.625, 9.4375, 9.5, 9.625, 9.5625, 9.5625, 9.5, 9.6875, 9.625, 9.5, 9.4375, 9.625, 9.5, 9.625, 9.4375, 9.4375, 9.625, 9.625, 9.5625, 9.4375, 9.4375, 9.5, 9.5625, 9.625, 9.5, 9.5, 9.625, 9.5, 9.4375, 9.5625, 9.625, 9.5625, 9.5, 9.5625, 9.625, 9.625, 9.5, 9.4375, 9.4375, 9.5, 9.4375, 9.8125, 9.625, 9.5625, 9.6875, 9.5625, 9.4375, 9.5625, 9.5, 9.625, 9.6875, 9.6875, 9.5625, 9.8125, 9.625, 9.75, 9.6875, 9.625, 9.8125, 9.75, 9.75, 9.6875, 9.5625, 9.625, 9.75, 9.8125, 9.6875, 9.75, 9.75, 9.75, 9.6875, 9.8125, 9.8125, 9.625, 9.625, 9.75, 9.625, 9.625, 9.6875, 9.6875, 9.5625, 9.625, 9.75, 9.625, 9.75, 9.5625, 9.6875, 9.625, 9.6875, 9.5625, 9.5625, 9.5625, 9.625, 9.8125, 9.5625, 9.5625, 9.5625, 9.4375, 9.8125, 9.625, 9.625, 9.6875, 9.5, 9.5, 9.5, 9.25, 9.3125, 9.4375, 9.3125, 9.375, 9.4375, 9.4375, 9.3125, 9.375, 9.3125, 9.3125, 9.375, 9.125, 9.0625, 9.375, 9.25, 9.3125, 9.25, 9.25, 9.125, 9.3125, 9.0, 8.9375, 9.0, 9.0625, 9.125, 9.1875, 9.0625, 9.125, 9.125, 9.125, 9.125, 9.0, 9.125, 9.0, 9.125, 9.0, 8.9375, 9.0, 9.0, 9.0, 9.0625, 8.9375, 9.0, 9.125, 9.0]","[56320.0, 11840.0, 9792.0, 11072.0, 10432.0, 12544.0, 12544.0, 11840.0, 12544.0, 11840.0, 13376.0, 11072.0, 12544.0, 13376.0, 11072.0, 11072.0, 11840.0, 14272.0, 11840.0, 11072.0, 11840.0, 11840.0, 12544.0, 11072.0, 12544.0, 11840.0, 9792.0, 11072.0, 11072.0, 10432.0, 9792.0, 11840.0, 11840.0, 9792.0, 11072.0, 11072.0, 11072.0, 11072.0, 11840.0, 11072.0, 10432.0, 10432.0, 10432.0, 11072.0, 10432.0, 11840.0, 10432.0, 11072.0, 11072.0, 10432.0, 11072.0, 11072.0, 11072.0, 11840.0, 11840.0, 11072.0, 11072.0, 10432.0, 11072.0, 11072.0, 10432.0, 12544.0, 12544.0, 11072.0, 12544.0, 9792.0, 11840.0, 11072.0, 12544.0, 12544.0, 11840.0, 14272.0, 12544.0, 11072.0, 11840.0, 11840.0, 11840.0, 11840.0, 11072.0, 11840.0, 11840.0, 13376.0, 11840.0, 9792.0, 12544.0, 12544.0, 11840.0, 14272.0, 11840.0, 11840.0, 10432.0, 11840.0, 12544.0, 11072.0, 11840.0, 12544.0, 11072.0, 10432.0, 10432.0, 11840.0, 10432.0, 11840.0, 11072.0, 11840.0, 13376.0, 10432.0, 11072.0, 11072.0, 10432.0, 11072.0, 11840.0, 11072.0, 11072.0, 11840.0, 12544.0, 11072.0, 10432.0, 12544.0, 11840.0, 11072.0, 13376.0, 12544.0, 11072.0, 11072.0, 12544.0, 11072.0, 11072.0, 10432.0, 11072.0, 10432.0, 11072.0, 9792.0, 11072.0, 10432.0, 10432.0, 10432.0, 10432.0, 11072.0, 13376.0, 11072.0, 11840.0, 11840.0, 11072.0, 11072.0, 11072.0, 10432.0, 11072.0, 13376.0, 11840.0, 11840.0, 12544.0, 11072.0, 11072.0, 13376.0, 12544.0, 13376.0, 12544.0, 12544.0, 12544.0, 12544.0, 11072.0, 13376.0, 12544.0, 12544.0, 12544.0, 11840.0, 14272.0, 11840.0, 13376.0, 15168.0, 13376.0, 11840.0, 15168.0, 14272.0, 13376.0, 15168.0, 14272.0, 13376.0, 11840.0, 15168.0, 12544.0, 12544.0, 12544.0, 13376.0, 17152.0, 20736.0, 16128.0, 17152.0, 18304.0, 22016.0, 22016.0, 18304.0, 17152.0, 11072.0, 9792.0, 11840.0, 10432.0, 11072.0, 12544.0, 11840.0, 12544.0, 14272.0, 15168.0, 16128.0, 13376.0, 14272.0, 13376.0, 11840.0, 11072.0, 10432.0, 11840.0, 10432.0, 11072.0, 13376.0, 11840.0, 11840.0, 12544.0, 14272.0, 18304.0, 11072.0, 11072.0, 11840.0, 14272.0, 12544.0, 12544.0, 12544.0, 11840.0, 13376.0, 10432.0, 9792.0, 11072.0, 10432.0, 10432.0, 11840.0, 11840.0, 10432.0, 11072.0, 11072.0, 10432.0, 11072.0, 11840.0, 11840.0, 12544.0, 11840.0, 11072.0, 12544.0, 11072.0, 12544.0, 11840.0, 11840.0, 11840.0, 11072.0, 12544.0, 12544.0, 10432.0, 11840.0, 11840.0, 11072.0, 11840.0, 13376.0, 13376.0, 14272.0, 13376.0, 13376.0, 11840.0, 12544.0, 12544.0, 12544.0, 13376.0, 14272.0, 13376.0, 15168.0, 11072.0, 13376.0, 15168.0, 16128.0, 14272.0, 15168.0, 14272.0, 14272.0, 11840.0, 11072.0, 12544.0, 13376.0, 14272.0, 13376.0, 14272.0, 11072.0, 12544.0, 11840.0, 13376.0, 15168.0, 12544.0, 14272.0, 12544.0, 15168.0, 13376.0, 14272.0, 13376.0, 12544.0, 14272.0, 12544.0, 13376.0, 12544.0, 11840.0, 13376.0, 12544.0, 12544.0, 11840.0, 11840.0, 11840.0, 11840.0, 10432.0, 11840.0, 12544.0, 11072.0, 12544.0, 12544.0, 10432.0, 12544.0, 11072.0, 11072.0, 11840.0, 13376.0, 12544.0, 10432.0, 11072.0, 12544.0, 11072.0, 12544.0, 11840.0, 13376.0, 12544.0, 11840.0, 11840.0, 13376.0, 12544.0, 11840.0, 12544.0, 14272.0, 14272.0, 12544.0, 15168.0, 13376.0, 13376.0, 13376.0, 15168.0, 15168.0, 13376.0, 12544.0, 13376.0, 13376.0, 11840.0, 14272.0, 12544.0, 13376.0, 11840.0, 13376.0, 12544.0, 14272.0, 12544.0, 14272.0, 13376.0, 14272.0, 13376.0, 12544.0, 12544.0, 11840.0, 12544.0, 13376.0, 14272.0, 14272.0, 11840.0, 12544.0, 13376.0, 13376.0, 13376.0, 12544.0, 11072.0, 13376.0, 12544.0, 11840.0, 12544.0, 12544.0, 12544.0, 11840.0, 12544.0, 12544.0, 11072.0, 12544.0, 11840.0, 12544.0, 11840.0, 11840.0, 12544.0, 11840.0, 12544.0, 11840.0, 13376.0, 13376.0, 12544.0, 14272.0, 11840.0, 11840.0, 13376.0, 12544.0, 14272.0, 13376.0, 13376.0, 11840.0, 11840.0, 11072.0, 13376.0, 12544.0, 13376.0, 13376.0, 12544.0, 12544.0, 14272.0, 14272.0, 13376.0, 15168.0, 12544.0, 13376.0, 15168.0, 14272.0, 14272.0, 13376.0, 16128.0, 15168.0, 13376.0, 12544.0, 15168.0, 13376.0, 15168.0, 12544.0, 12544.0, 15168.0, 15168.0, 14272.0, 12544.0, 12544.0, 13376.0, 14272.0, 15168.0, 13376.0, 13376.0, 15168.0, 13376.0, 12544.0, 14272.0, 15168.0, 14272.0, 13376.0, 14272.0, 15168.0, 15168.0, 13376.0, 12544.0, 12544.0, 13376.0, 12544.0, 18304.0, 15168.0, 14272.0, 16128.0, 14272.0, 12544.0, 14272.0, 13376.0, 15168.0, 16128.0, 16128.0, 14272.0, 18304.0, 15168.0, 17152.0, 16128.0, 15168.0, 18304.0, 17152.0, 17152.0, 16128.0, 14272.0, 15168.0, 17152.0, 18304.0, 16128.0, 17152.0, 17152.0, 17152.0, 16128.0, 18304.0, 18304.0, 15168.0, 15168.0, 17152.0, 15168.0, 15168.0, 16128.0, 16128.0, 14272.0, 15168.0, 17152.0, 15168.0, 17152.0, 14272.0, 16128.0, 15168.0, 16128.0, 14272.0, 14272.0, 14272.0, 15168.0, 18304.0, 14272.0, 14272.0, 14272.0, 12544.0, 18304.0, 15168.0, 15168.0, 16128.0, 13376.0, 13376.0, 13376.0, 10432.0, 11072.0, 12544.0, 11072.0, 11840.0, 12544.0, 12544.0, 11072.0, 11840.0, 11072.0, 11072.0, 11840.0, 9216.0, 8640.0, 11840.0, 10432.0, 11072.0, 10432.0, 10432.0, 9216.0, 11072.0, 8128.0, 7616.0, 8128.0, 8640.0, 9216.0, 9792.0, 8640.0, 9216.0, 9216.0, 9216.0, 9216.0, 8128.0, 9216.0, 8128.0, 9216.0, 8128.0, 7616.0, 8128.0, 8128.0, 8128.0, 8640.0, 7616.0, 8128.0, 9216.0, 8128.0]","[10.9375, 9.0625, 8.9375, 9.0, 8.9375, 9.1875, 9.25, 9.125, 9.4375, 9.1875, 9.375, 9.0625, 9.1875, 9.3125, 9.25, 9.0625, 9.25, 9.875, 9.375, 9.125, 9.375, 9.4375, 9.375, 9.25, 9.3125, 9.3125, 9.125, 9.125, 9.1875, 9.125, 9.25, 9.3125, 9.3125, 9.3125, 9.25, 9.25, 9.125, 9.3125, 9.5, 9.4375, 9.25, 9.375, 9.25, 9.375, 9.5, 9.625, 9.375, 9.4375, 9.5, 9.3125, 9.375, 9.5625, 9.875, 9.875, 9.9375, 9.8125, 9.5, 9.25, 9.375, 9.75, 9.9375, 10.125, 10.375, 9.4375, 9.875, 9.25, 9.5625, 9.9375, 10.25, 10.3125, 10.0625, 10.125, 10.0625, 9.4375, 9.5, 9.625, 9.5, 9.8125, 9.75, 9.875, 9.9375, 10.75, 10.6875, 10.375, 10.9375, 10.9375, 10.25, 10.625, 10.3125, 9.6875, 9.75, 10.5, 10.4375, 10.0625, 10.4375, 10.375, 9.625, 9.625, 9.625, 10.0, 9.625, 9.8125, 9.5625, 10.375, 10.3125, 9.8125, 9.875, 9.9375, 9.625, 9.625, 9.5, 9.9375, 10.3125, 10.0, 10.625, 9.8125, 9.625, 9.625, 9.8125, 9.75, 9.875, 9.8125, 9.9375, 9.9375, 9.9375, 9.75, 9.5625, 9.8125, 10.125, 10.0, 10.0625, 9.625, 9.5, 9.625, 9.4375, 9.5625, 9.5625, 9.8125, 10.0625, 10.125, 10.0, 10.375, 9.875, 10.125, 9.8125, 10.125, 10.0, 10.375, 10.125, 10.625, 10.1875, 9.9375, 10.0625, 10.5, 10.625, 11.125, 10.4375, 10.375, 10.375, 9.875, 9.875, 10.5625, 10.1875, 10.375, 10.375, 10.5, 10.5625, 10.0625, 10.75, 11.4375, 11.0625, 10.9375, 11.25, 10.6875, 11.0625, 11.8125, 11.25, 11.1875, 11.5, 11.6875, 10.1875, 10.625, 10.375, 10.375, 11.25, 12.0625, 11.625, 12.5, 12.3125, 12.8125, 12.4375, 11.625, 11.5625, 10.125, 9.8125, 10.0, 9.8125, 10.1875, 10.3125, 10.0, 10.3125, 10.6875, 11.125, 10.875, 10.8125, 10.9375, 10.5625, 10.25, 9.9375, 10.1875, 10.125, 9.875, 10.0, 10.5, 10.1875, 10.375, 10.75, 11.0, 11.625, 10.3125, 10.0, 10.375, 10.9375, 10.5625, 10.625, 10.375, 10.1875, 11.625, 9.5625, 9.25, 9.9375, 9.75, 9.4375, 9.6875, 9.9375, 9.6875, 9.875, 9.6875, 9.875, 10.4375, 10.0, 10.125, 10.125, 10.0625, 10.1875, 10.1875, 9.875, 10.25, 9.9375, 10.0625, 10.1875, 10.0625, 10.375, 10.1875, 10.125, 10.1875, 10.1875, 10.25, 10.4375, 10.625, 10.6875, 10.6875, 10.5625, 10.5625, 10.0625, 10.375, 10.3125, 10.375, 10.3125, 10.3125, 10.375, 10.4375, 10.0625, 10.4375, 10.75, 10.8125, 10.4375, 10.3125, 10.5625, 10.4375, 10.0625, 10.0625, 10.3125, 10.375, 10.4375, 10.5, 11.0, 10.375, 10.375, 10.1875, 10.375, 10.5, 10.0, 10.5625, 10.25, 10.6875, 10.5625, 10.375, 10.5625, 10.375, 10.4375, 10.3125, 10.4375, 10.3125, 10.1875, 10.0, 10.125, 10.25, 9.9375, 10.0, 10.125, 10.125, 9.875, 10.375, 10.25, 9.875, 10.25, 10.5, 10.25, 10.0625, 9.75, 10.0, 10.0625, 10.125, 10.25, 9.625, 10.25, 10.1875, 9.9375, 10.0625, 10.125, 10.25, 9.9375, 9.8125, 10.0, 10.4375, 10.25, 10.0625, 10.25, 10.125, 10.125, 10.1875, 10.25, 10.3125, 10.3125, 10.25, 10.5, 10.3125, 10.0625, 10.1875, 10.1875, 10.125, 10.1875, 10.3125, 10.0625, 10.0625, 9.9375, 10.0, 9.9375, 9.875, 9.8125, 9.875, 10.0625, 10.1875, 10.25, 9.9375, 10.125, 10.125, 9.9375, 9.8125, 10.0, 9.875, 9.8125, 9.8125, 10.0, 10.0, 10.0625, 9.625, 9.6875, 10.0, 9.8125, 9.8125, 9.8125, 9.8125, 9.625, 9.6875, 9.75, 9.75, 9.5625, 9.75, 10.0, 9.8125, 9.625, 9.8125, 9.75, 9.8125, 9.6875, 9.8125, 9.75, 9.75, 9.875, 9.875, 9.6875, 9.875, 9.8125, 9.75, 9.9375, 9.9375, 9.8125, 9.6875, 9.75, 9.5625, 9.75, 9.6875, 9.75, 10.0, 9.875, 9.875, 9.75, 9.875, 9.75, 10.0, 9.8125, 10.125, 10.0625, 9.9375, 10.125, 10.125, 10.25, 10.0625, 9.8125, 9.75, 9.875, 9.9375, 10.0625, 9.6875, 9.8125, 10.0625, 10.125, 9.875, 9.75, 9.8125, 9.8125, 9.8125, 9.8125, 9.75, 9.875, 10.0, 9.875, 9.875, 10.0, 9.875, 9.8125, 9.8125, 10.25, 10.125, 10.125, 10.0, 9.8125, 9.6875, 9.875, 10.0625, 10.25, 10.1875, 10.0, 10.0, 9.9375, 9.75, 9.8125, 9.75, 9.9375, 9.875, 10.0, 10.1875, 10.25, 10.0, 10.0, 10.0, 10.0, 10.0, 10.0, 9.9375, 9.9375, 9.75, 9.75, 9.8125, 9.9375, 10.0, 10.0625, 10.0625, 9.9375, 9.9375, 10.0, 9.875, 9.8125, 9.9375, 10.0, 9.875, 9.8125, 9.8125, 9.8125, 9.6875, 10.125, 10.1875, 10.0, 10.0625, 9.9375, 9.6875, 9.6875, 9.9375, 9.6875, 9.875, 9.75, 9.875, 9.875, 9.6875, 9.6875, 9.5625, 9.5, 9.75, 9.625, 9.5625, 9.625, 9.625, 9.5, 9.25, 9.25, 9.25, 9.375, 9.3125, 9.125, 9.125, 9.25, 9.125, 9.25, 9.125, 9.0, 9.0625, 8.875, 8.6875, 8.9375, 8.8125, 8.875, 8.875, 8.8125, 8.6875, 8.875, 8.625, 8.625, 8.625, 8.625, 8.6875, 8.75, 8.6875, 8.625, 8.6875, 8.6875, 8.625, 8.5625, 8.6875, 8.5, 8.5625, 8.625, 8.5625, 8.625, 8.6875, 8.625, 8.75, 8.5625, 8.625, 8.6875, 8.6875]","[56320.0, 8640.0, 7616.0, 8128.0, 7616.0, 9792.0, 10432.0, 9216.0, 12544.0, 9792.0, 11840.0, 8640.0, 9792.0, 11072.0, 10432.0, 8640.0, 10432.0, 19456.0, 11840.0, 9216.0, 11840.0, 12544.0, 11840.0, 10432.0, 11072.0, 11072.0, 9216.0, 9216.0, 9792.0, 9216.0, 10432.0, 11072.0, 11072.0, 11072.0, 10432.0, 10432.0, 9216.0, 11072.0, 13376.0, 12544.0, 10432.0, 11840.0, 10432.0, 11840.0, 13376.0, 15168.0, 11840.0, 12544.0, 13376.0, 11072.0, 11840.0, 14272.0, 19456.0, 19456.0, 20736.0, 18304.0, 13376.0, 10432.0, 11840.0, 17152.0, 20736.0, 24960.0, 32128.0, 12544.0, 19456.0, 10432.0, 14272.0, 20736.0, 28288.0, 30208.0, 23424.0, 24960.0, 23424.0, 12544.0, 13376.0, 15168.0, 13376.0, 18304.0, 17152.0, 19456.0, 20736.0, 46592.0, 43776.0, 32128.0, 56320.0, 56320.0, 28288.0, 41216.0, 30208.0, 16128.0, 17152.0, 36352.0, 34304.0, 23424.0, 34304.0, 32128.0, 15168.0, 15168.0, 15168.0, 22016.0, 15168.0, 18304.0, 14272.0, 32128.0, 30208.0, 18304.0, 19456.0, 20736.0, 15168.0, 15168.0, 13376.0, 20736.0, 30208.0, 22016.0, 41216.0, 18304.0, 15168.0, 15168.0, 18304.0, 17152.0, 19456.0, 18304.0, 20736.0, 20736.0, 20736.0, 17152.0, 14272.0, 18304.0, 24960.0, 22016.0, 23424.0, 15168.0, 13376.0, 15168.0, 12544.0, 14272.0, 14272.0, 18304.0, 23424.0, 24960.0, 22016.0, 32128.0, 19456.0, 24960.0, 18304.0, 24960.0, 22016.0, 32128.0, 24960.0, 41216.0, 26624.0, 20736.0, 23424.0, 36352.0, 41216.0, 68096.0, 34304.0, 32128.0, 32128.0, 19456.0, 19456.0, 38656.0, 26624.0, 32128.0, 32128.0, 36352.0, 38656.0, 23424.0, 46592.0, 92672.0, 63744.0, 56320.0, 76800.0, 43776.0, 63744.0, 135168.0, 76800.0, 72192.0, 98816.0, 119296.0, 26624.0, 41216.0, 32128.0, 32128.0, 76800.0, 174080.0, 112128.0, 268288.0, 223232.0, 366592.0, 252928.0, 112128.0, 105472.0, 24960.0, 18304.0, 22016.0, 18304.0, 26624.0, 30208.0, 22016.0, 30208.0, 43776.0, 68096.0, 52992.0, 49664.0, 56320.0, 38656.0, 28288.0, 20736.0, 26624.0, 24960.0, 19456.0, 22016.0, 36352.0, 26624.0, 32128.0, 46592.0, 59904.0, 112128.0, 30208.0, 22016.0, 32128.0, 56320.0, 38656.0, 41216.0, 32128.0, 26624.0, 112128.0, 14272.0, 10432.0, 20736.0, 17152.0, 12544.0, 16128.0, 20736.0, 16128.0, 19456.0, 16128.0, 19456.0, 34304.0, 22016.0, 24960.0, 24960.0, 23424.0, 26624.0, 26624.0, 19456.0, 28288.0, 20736.0, 23424.0, 26624.0, 23424.0, 32128.0, 26624.0, 24960.0, 26624.0, 26624.0, 28288.0, 34304.0, 41216.0, 43776.0, 43776.0, 38656.0, 38656.0, 23424.0, 32128.0, 30208.0, 32128.0, 30208.0, 30208.0, 32128.0, 34304.0, 23424.0, 34304.0, 46592.0, 49664.0, 34304.0, 30208.0, 38656.0, 34304.0, 23424.0, 23424.0, 30208.0, 32128.0, 34304.0, 36352.0, 59904.0, 32128.0, 32128.0, 26624.0, 32128.0, 36352.0, 22016.0, 38656.0, 28288.0, 43776.0, 38656.0, 32128.0, 38656.0, 32128.0, 34304.0, 30208.0, 34304.0, 30208.0, 26624.0, 22016.0, 24960.0, 28288.0, 20736.0, 22016.0, 24960.0, 24960.0, 19456.0, 32128.0, 28288.0, 19456.0, 28288.0, 36352.0, 28288.0, 23424.0, 17152.0, 22016.0, 23424.0, 24960.0, 28288.0, 15168.0, 28288.0, 26624.0, 20736.0, 23424.0, 24960.0, 28288.0, 20736.0, 18304.0, 22016.0, 34304.0, 28288.0, 23424.0, 28288.0, 24960.0, 24960.0, 26624.0, 28288.0, 30208.0, 30208.0, 28288.0, 36352.0, 30208.0, 23424.0, 26624.0, 26624.0, 24960.0, 26624.0, 30208.0, 23424.0, 23424.0, 20736.0, 22016.0, 20736.0, 19456.0, 18304.0, 19456.0, 23424.0, 26624.0, 28288.0, 20736.0, 24960.0, 24960.0, 20736.0, 18304.0, 22016.0, 19456.0, 18304.0, 18304.0, 22016.0, 22016.0, 23424.0, 15168.0, 16128.0, 22016.0, 18304.0, 18304.0, 18304.0, 18304.0, 15168.0, 16128.0, 17152.0, 17152.0, 14272.0, 17152.0, 22016.0, 18304.0, 15168.0, 18304.0, 17152.0, 18304.0, 16128.0, 18304.0, 17152.0, 17152.0, 19456.0, 19456.0, 16128.0, 19456.0, 18304.0, 17152.0, 20736.0, 20736.0, 18304.0, 16128.0, 17152.0, 14272.0, 17152.0, 16128.0, 17152.0, 22016.0, 19456.0, 19456.0, 17152.0, 19456.0, 17152.0, 22016.0, 18304.0, 24960.0, 23424.0, 20736.0, 24960.0, 24960.0, 28288.0, 23424.0, 18304.0, 17152.0, 19456.0, 20736.0, 23424.0, 16128.0, 18304.0, 23424.0, 24960.0, 19456.0, 17152.0, 18304.0, 18304.0, 18304.0, 18304.0, 17152.0, 19456.0, 22016.0, 19456.0, 19456.0, 22016.0, 19456.0, 18304.0, 18304.0, 28288.0, 24960.0, 24960.0, 22016.0, 18304.0, 16128.0, 19456.0, 23424.0, 28288.0, 26624.0, 22016.0, 22016.0, 20736.0, 17152.0, 18304.0, 17152.0, 20736.0, 19456.0, 22016.0, 26624.0, 28288.0, 22016.0, 22016.0, 22016.0, 22016.0, 22016.0, 22016.0, 20736.0, 20736.0, 17152.0, 17152.0, 18304.0, 20736.0, 22016.0, 23424.0, 23424.0, 20736.0, 20736.0, 22016.0, 19456.0, 18304.0, 20736.0, 22016.0, 19456.0, 18304.0, 18304.0, 18304.0, 16128.0, 24960.0, 26624.0, 22016.0, 23424.0, 20736.0, 16128.0, 16128.0, 20736.0, 16128.0, 19456.0, 17152.0, 19456.0, 19456.0, 16128.0, 16128.0, 14272.0, 13376.0, 17152.0, 15168.0, 14272.0, 15168.0, 15168.0, 13376.0, 10432.0, 10432.0, 10432.0, 11840.0, 11072.0, 9216.0, 9216.0, 10432.0, 9216.0, 10432.0, 9216.0, 8128.0, 8640.0, 7168.0, 5952.0, 7616.0, 6720.0, 7168.0, 7168.0, 6720.0, 5952.0, 7168.0, 5568.0, 5568.0, 5568.0, 5568.0, 5952.0, 6336.0, 5952.0, 5568.0, 5952.0, 5952.0, 5568.0, 5248.0, 5952.0, 4928.0, 5248.0, 5568.0, 5248.0, 5568.0, 5952.0, 5568.0, 6336.0, 5248.0, 5568.0, 5952.0, 5952.0]","[0.0, 0.0013673905050382018, 0.0015321477549150586, 0.0015834015794098377, 0.0016636665677651763, 0.0011169835925102234, 0.0017125150188803673, 0.0018034265376627445, 0.0010690789204090834, 0.0020543443970382214, 0.001174831297248602, 0.0014217362040653825, 0.0015313097974285483, 0.0018072783714160323, 0.0014977805549278855, 0.0017043736297637224, 0.001985854236409068, 8.192915993276983e-05, 0.000931762158870697, 0.0016115375328809023, 0.0010161484824493527, 0.001473839394748211, 0.0010632207849994302, 0.0013307261979207397, 0.0013112605083733797, 0.0013686256716027856, 0.0016334530664607882, 0.001508750719949603, 0.0016195443458855152, 0.0018376302905380726, 0.0007084275712259114, 0.0014727540547028184, 0.001824320643208921, 0.001252586836926639, 0.0013747971970587969, 0.0013678394025191665, 0.001848227926529944, 0.001360174035653472, 0.0012394986115396023, 0.0006303096888586879, 0.0009862743318080902, 0.0011475723003968596, 0.0010115093318745494, 0.0006871718796901405, 0.000518417451530695, 0.0004108350840397179, 0.0004646840097848326, 0.0004138958756811917, 0.00032819167245179415, 0.0011810915311798453, 0.0014202992897480726, 0.0010901856003329158, 0.00035649645724333823, 0.0007382091716863215, 0.0005198785220272839, 0.0008767603430896997, 0.0008703693747520447, 0.0016038274625316262, 0.001012644381262362, 0.001092836493626237, 0.0007659690454602242, 0.000573613797314465, 0.0009571994887664914, 0.0017436316702514887, 0.0007916359463706613, 0.0016176792560145259, 0.0005759420455433428, 0.0007069443818181753, 0.0006021293229423463, 0.0005766537506133318, 0.0007097038323991001, 0.0007666192250326276, 0.0007389769307337701, 0.001336898421868682, 0.0007938028429634869, 0.0008201426826417446, 0.0007130711455829442, 0.0011760845081880689, 0.0013110097497701645, 0.0013886620290577412, 0.0014829460997134447, 0.0009558923775330186, 0.0012565559009090066, 0.0016411826945841312, 0.0011248285882174969, 0.0011774370213970542, 0.001812191097997129, 0.0012310217134654522, 0.0017199486028403044, 0.0013413999695330858, 0.0015895637916401029, 0.0017464865231886506, 0.0017013803590089083, 0.001230113091878593, 0.0013084723614156246, 0.0018518014112487435, 0.0021264993119984865, 0.0024085172917693853, 0.0021200261544436216, 0.0019514071755111217, 0.00221287296153605, 0.0020202570594847202, 0.0020781494677066803, 0.002179895993322134, 0.0028708134777843952, 0.0019045028602704406, 0.0024611682165414095, 0.0031166274566203356, 0.003356528701260686, 0.0033244318328797817, 0.003269500331953168, 0.003007477382197976, 0.002892697462812066, 0.0029984191060066223, 0.00282563385553658, 0.0026434119790792465, 0.003764460328966379, 0.0039968243800103664, 0.0032850613351911306, 0.0033373455516994, 0.004055635537952185, 0.0034477142617106438, 0.003101413371041417, 0.0031382180750370026, 0.003568607149645686, 0.0034670087043195963, 0.003107029013335705, 0.0035594983492046595, 0.003304146695882082, 0.0038104115519672632, 0.0037608433049172163, 0.0035427880939096212, 0.004100040998309851, 0.0033615741413086653, 0.0043268706649541855, 0.004227465018630028, 0.0039339750073850155, 0.003736879676580429, 0.0035353947896510363, 0.0034690923057496548, 0.0033780999947339296, 0.0031186738051474094, 0.0036495355889201164, 0.004240766167640686, 0.0035620341077446938, 0.004023869521915913, 0.004248944576829672, 0.0039876545779407024, 0.003561838995665312, 0.0037208283320069313, 0.003748084884136915, 0.004166326019912958, 0.004760725423693657, 0.0038908389396965504, 0.004361541476100683, 0.004674040246754885, 0.004562343005090952, 0.0037550705019384623, 0.004099817015230656, 0.003978201653808355, 0.003615249879658222, 0.004348777234554291, 0.004895124118775129, 0.004246808122843504, 0.004451727494597435, 0.004476054571568966, 0.0046712374314665794, 0.004743082914501429, 0.004422242287546396, 0.0038249276112765074, 0.004443468991667032, 0.00412737438455224, 0.00461925333365798, 0.0038018652703613043, 0.004187994636595249, 0.003508098889142275, 0.0033421909902244806, 0.003186112968251109, 0.0037506502121686935, 0.003257505828514695, 0.0034184760879725218, 0.003878421150147915, 0.003447615308687091, 0.004000000189989805, 0.004229541402310133, 0.00402001803740859, 0.0039285230450332165, 0.004841149784624577, 0.004295602906495333, 0.0038782977499067783, 0.004049247596412897, 0.0042597632855176926, 0.004620569758117199, 0.003951484337449074, 0.005175246391445398, 0.004460010211914778, 0.00459626317024231, 0.004445292986929417, 0.003955156542360783, 0.004315083380788565, 0.004153118934482336, 0.004309280309826136, 0.004006868693977594, 0.0036705289967358112, 0.004172347951680422, 0.004345687106251717, 0.004965893924236298, 0.00477156788110733, 0.005543145351111889, 0.004096345975995064, 0.004127712920308113, 0.004408883396536112, 0.0053137303330004215, 0.003730225609615445, 0.0036998747382313013, 0.004575163591653109, 0.004282246343791485, 0.00506946537643671, 0.00500054657459259, 0.004082521423697472, 0.004738816991448402, 0.004501063842326403, 0.004953593946993351, 0.0047048525884747505, 0.004377924371510744, 0.004188911523669958, 0.003921460825949907, 0.004545704927295446, 0.004801528062671423, 0.006062434986233711, 0.005143696907907724, 0.006460266653448343, 0.005883801728487015, 0.0056130550801754, 0.0050848848186433315, 0.0058965496718883514, 0.006489434279501438, 0.005121604073792696, 0.005414625164121389, 0.005231037735939026, 0.004334433004260063, 0.005228188820183277, 0.005665876902639866, 0.0048184143379330635, 0.005464480724185705, 0.0045231604017317295, 0.004761249292641878, 0.005233176052570343, 0.005499015096575022, 0.005243852734565735, 0.005095784552395344, 0.004940495826303959, 0.005912484135478735, 0.006076956633478403, 0.0052709197625517845, 0.006294277962297201, 0.004708379972726107, 0.00518376287072897, 0.0045142401941120625, 0.004437383729964495, 0.005226338282227516, 0.005122615490108728, 0.0049366638995707035, 0.005072265863418579, 0.0045921714045107365, 0.004310226999223232, 0.004588290583342314, 0.004388834349811077, 0.004317765589803457, 0.0037745137233287096, 0.004050023388117552, 0.004573917482048273, 0.004505242686718702, 0.004285870119929314, 0.004337507300078869, 0.004562343005090952, 0.00431470014154911, 0.0048051984049379826, 0.004163831472396851, 0.004485785961151123, 0.005106803495436907, 0.0046226647682487965, 0.004129180684685707, 0.004320008680224419, 0.004967791493982077, 0.005592230707406998, 0.0051578921265900135, 0.00511599937453866, 0.006128562614321709, 0.004597826860845089, 0.005527734290808439, 0.004577097948640585, 0.005164781119674444, 0.004653821233659983, 0.0054262494668364525, 0.006373764015734196, 0.006385311018675566, 0.005002323538064957, 0.005425004288554192, 0.004861926659941673, 0.005129044875502586, 0.00490342965349555, 0.004807031713426113, 0.004465630743652582, 0.004629629664123058, 0.00541013153269887, 0.004801229108124971, 0.004804524593055248, 0.005041648633778095, 0.005476900842040777, 0.005779719445854425, 0.004638472106307745, 0.004616351332515478, 0.005102597642689943, 0.005602856632322073, 0.0059186192229390144, 0.0059942519292235374, 0.0054119061678647995, 0.005838933400809765, 0.005504436790943146, 0.006497618742287159, 0.005906480830162764, 0.005956446751952171, 0.004779331386089325, 0.0061859069392085075, 0.00534700695425272, 0.005701129324734211, 0.005089197773486376, 0.005716161336749792, 0.005477501545101404, 0.0063010756857693195, 0.00573603343218565, 0.0056238058023154736, 0.005835514981299639, 0.00634053023532033, 0.006672476883977652, 0.005095645785331726, 0.005232463125139475, 0.005389287136495113, 0.004691525362432003, 0.005437618587166071, 0.0050215404480695724, 0.004861301742494106, 0.006003289483487606, 0.005314075853675604, 0.005784131586551666, 0.00569528853520751, 0.005200492683798075, 0.005568050779402256, 0.0043441434390842915, 0.004971047397702932, 0.0054276674054563046, 0.005322182085365057, 0.00503620645031333, 0.004681853111833334, 0.005185589659959078, 0.006120617035776377, 0.005426292773336172, 0.005018786061555147, 0.005455537233501673, 0.0054070292972028255, 0.005689122248440981, 0.004836197476834059, 0.005296178627759218, 0.005440874956548214, 0.005504387430846691, 0.0056036957539618015, 0.0059194196946918964, 0.005588887725025415, 0.005239602643996477, 0.005045546218752861, 0.004632910247892141, 0.004465744365006685, 0.003943045157939196, 0.004874976351857185, 0.005134787876158953, 0.005476812832057476, 0.005799639038741589, 0.005183326080441475, 0.005109429359436035, 0.004959447775036097, 0.005333479959517717, 0.005450333934277296, 0.005865745712071657, 0.005441140383481979, 0.005331073421984911, 0.006104738917201757, 0.004746317397803068, 0.004607283975929022, 0.004472983535379171, 0.00490142684429884, 0.005157733801752329, 0.004904766101390123, 0.005433891899883747, 0.0043748123571276665, 0.004749626852571964, 0.004336087498813868, 0.004960942547768354, 0.004260200075805187, 0.004342126660048962, 0.004874842241406441, 0.005393919534981251, 0.004758909344673157, 0.005502929445356131, 0.006301661487668753, 0.005762350745499134, 0.005797811318188906, 0.0048796446062624454, 0.005607374478131533, 0.0049298652447760105, 0.005165628157556057, 0.005146596115082502, 0.0055475481785833836, 0.0047966232523322105, 0.005583839491009712, 0.005287670996040106, 0.005677010864019394, 0.005419760476797819, 0.005318423733115196, 0.006075729615986347, 0.006125115789473057, 0.005681507755070925, 0.005291295237839222, 0.006174020003527403, 0.0055007897317409515, 0.00630143703892827, 0.0056130550801754, 0.00665054377168417, 0.006185510195791721, 0.005910490173846483, 0.006044196430593729, 0.005722264759242535, 0.006626308895647526, 0.005696685519069433, 0.005941786803305149, 0.006388369016349316, 0.006825192831456661, 0.0062239523977041245, 0.005553438328206539, 0.0066846744157373905, 0.006462696474045515, 0.006412196904420853, 0.005860926583409309, 0.006452667061239481, 0.006019481457769871, 0.0060476697981357574, 0.005781297106295824, 0.005471657030284405, 0.006228146608918905, 0.005976584739983082, 0.005619979463517666, 0.006242163013666868, 0.005954657215625048, 0.00581459142267704, 0.006899596657603979, 0.006308200769126415, 0.006234722211956978, 0.006458498537540436, 0.006676517426967621, 0.007136755622923374, 0.008242879062891006, 0.006867117248475552, 0.0068021658807992935, 0.007736679632216692, 0.00762542150914669, 0.007016966585069895, 0.00700597045943141, 0.006761546712368727, 0.006983278319239616, 0.006971677765250206, 0.007080371491611004, 0.007345110643655062, 0.006561141461133957, 0.008241233415901661, 0.0067228712141513824, 0.006117711309343576, 0.007612551562488079, 0.006827418226748705, 0.006958467420190573, 0.00673437537625432, 0.0066857426427304745, 0.007177822757512331, 0.007275223266333342, 0.007352941203862429, 0.008210808038711548, 0.007385524455457926, 0.0072398679330945015, 0.007272826507687569, 0.008088757283985615, 0.007906327955424786, 0.008190902881324291, 0.007115684449672699, 0.007435658015310764, 0.007802661042660475, 0.008196496404707432, 0.008263110183179379, 0.008522727526724339, 0.007736201398074627, 0.008100166916847229, 0.008186879567801952, 0.00885606836527586, 0.0072447978891432285, 0.008218429982662201, 0.007689790800213814, 0.008350673131644726, 0.00933151412755251, 0.009272429160773754, 0.009430351667106152, 0.008780540898442268, 0.007144415285438299, 0.009408343583345413, 0.009031198918819427, 0.00845890212804079, 0.009024624712765217, 0.008514845743775368, 0.00926205050200224, 0.010615595616400242, 0.011210023425519466, 0.012588405050337315, 0.010298830457031727, 0.009883321821689606, 0.011802545748651028, 0.011089510284364223, 0.014504277147352695, 0.01643499545753002, 0.012510926462709904, 0.012869204394519329, 0.01627182960510254, 0.01818777620792389, 0.016029492020606995, 0.017923885956406593, 0.01833360642194748, 0.015190497040748596, 0.020215006545186043, 0.018452005460858345, 0.0172579362988472, 0.01559582632035017, 0.017937220633029938, 0.021612228825688362, 0.019744927063584328, 0.015331776812672615, 0.016718856990337372, 0.018426978960633278, 0.016989029943943024, 0.01744471862912178, 0.019013699144124985, 0.017765246331691742, 0.018261464312672615, 0.021420765668153763, 0.020477348938584328, 0.01949685625731945, 0.02148277498781681, 0.012684124521911144, 0.017227256670594215, 0.019193438813090324, 0.02116098813712597, 0.019416946917772293, 0.02173972688615322, 0.023413939401507378, 0.022779542952775955, 0.02536054514348507, 0.023806916549801826, 0.016530055552721024, 0.017283277586102486, 0.02012963965535164, 0.02177942544221878, 0.019900090992450714, 0.019535919651389122, 0.020917991176247597, 0.020090200006961823, 0.01829957216978073, 0.018044253811240196]","[0.0, 0.00109468016307801, 0.0014995097881183028, 0.0014992504147812724, 0.0014028479345142841, 0.001172558288089931, 0.0014217918505892158, 0.0018652769504114985, 0.0019036997109651566, 0.0015181796625256538, 0.0016152603784576058, 0.0016343010356649756, 0.0018444866873323917, 0.0017874646000564098, 0.0017304697539657354, 0.0020359556656330824, 0.0019585629925131798, 0.0013653321657329798, 0.0021140023600310087, 0.0019814171828329563, 0.0013270762283354998, 0.0015776512445881963, 0.002038892824202776, 0.0012691575102508068, 0.001979855354875326, 0.0018463667947798967, 0.0016540689393877983, 0.0017310023540630937, 0.0019596165511757135, 0.001690519624389708, 0.0016720800194889307, 0.0017101571429520845, 0.001943129813298583, 0.0014215459814295173, 0.0019414862617850304, 0.0016121912049129605, 0.001959164859727025, 0.0015185007359832525, 0.001790010603144765, 0.0016153536271303892, 0.0018648826517164707, 0.002923695370554924, 0.0020969200413674116, 0.001788633526302874, 0.0014213002286851406, 0.0020949048921465874, 0.0018832029309123755, 0.0016939365305006504, 0.001479034312069416, 0.0019995386246591806, 0.0024404304567724466, 0.0018444157904013991, 0.0015389055479317904, 0.002459268318489194, 0.002210390754044056, 0.0020562291610985994, 0.0021323191467672586, 0.0021525213960558176, 0.0022652666084468365, 0.0020585234742611647, 0.0020579297561198473, 0.001766512985341251, 0.002072896808385849, 0.002269580028951168, 0.0024019984994083643, 0.002191296312958002, 0.0014222837053239346, 0.0014606957556679845, 0.0016346153570339084, 0.001941113150678575, 0.0011732799466699362, 0.000942090293392539, 0.0016721442807465792, 0.0021533078979700804, 0.0020361123606562614, 0.0015192892169579864, 0.0019989237189292908, 0.0025358281563967466, 0.002768006408587098, 0.002919315593317151, 0.002937957178801298, 0.0021547991782426834, 0.002342684892937541, 0.002441603224724531, 0.0016727230977267027, 0.0020576922688633204, 0.002190370112657547, 0.0012870259815827012, 0.0019616514910012484, 0.0022677043452858925, 0.002421400509774685, 0.001902419375255704, 0.002092733047902584, 0.002114164875820279, 0.0018444157904013991, 0.002595604630187154, 0.0026927737053483725, 0.002383515238761902, 0.0026897729840129614, 0.0027129470836371183, 0.0029217845294624567, 0.0028047258965671062, 0.0025355846155434847, 0.002803540788590908, 0.002536266576498747, 0.002420749282464385, 0.002787550212815404, 0.0032894103787839413, 0.0025381199084222317, 0.002574744401499629, 0.0033232802525162697, 0.0033250045962631702, 0.002615133300423622, 0.003016330301761627, 0.0024413687642663717, 0.0029615384992212057, 0.0028046180959790945, 0.0026129726320505142, 0.0023836069740355015, 0.002576229628175497, 0.002673076931387186, 0.003308583050966263, 0.0034987889230251312, 0.003060929710045457, 0.003364867065101862, 0.0032705513294786215, 0.0030753263272345066, 0.0033646728843450546, 0.0030944279860705137, 0.0031891188118606806, 0.003977250773459673, 0.0026716897264122963, 0.0036136473063379526, 0.00343933142721653, 0.0039197602309286594, 0.0035749292001128197, 0.003211723640561104, 0.0028865025378763676, 0.002711173379793763, 0.003036301117390394, 0.0028432561084628105, 0.0026354771107435226, 0.0028236107900738716, 0.0035201783757656813, 0.003114067018032074, 0.0029990195762366056, 0.003440719796344638, 0.0028430919628590345, 0.0028834508266299963, 0.00250057689845562, 0.003000865690410137, 0.0032613284420222044, 0.0036137860734015703, 0.0023078254889696836, 0.003000000026077032, 0.002710131462663412, 0.003266780637204647, 0.0027298766653984785, 0.0026554292999207973, 0.0033057215623557568, 0.002922739600762725, 0.002268271055072546, 0.00294134602881968, 0.0028446223586797714, 0.0028250215109437704, 0.0030385202262550592, 0.0030205666553229094, 0.0032893470488488674, 0.0028440754394978285, 0.001883927034214139, 0.002133794827386737, 0.0021912541706115007, 0.002288021380081773, 0.0025961538776755333, 0.002268750686198473, 0.0018654922023415565, 0.0019805787596851587, 0.0023071598261594772, 0.0022501731291413307, 0.001865205354988575, 0.002651500515639782, 0.0023637027479708195, 0.0025151195004582405, 0.00221009342931211, 0.002404724946245551, 0.0017490918980911374, 0.0020734937861561775, 0.0025556280743330717, 0.0019223745912313461, 0.0019779165741056204, 0.002381729893386364, 0.0020576922688633204, 0.002597003011032939, 0.002844130154699087, 0.0034227478317916393, 0.0021895705722272396, 0.0030013853684067726, 0.0031532396096736193, 0.0025723720900714397, 0.0030957369599491358, 0.0027679000049829483, 0.0019578863866627216, 0.0020959926769137383, 0.002095468807965517, 0.00270872563123703, 0.002421307610347867, 0.003327947109937668, 0.002597952261567116, 0.00401822617277503, 0.0029807118698954582, 0.002866156166419387, 0.002923020627349615, 0.0034783610608428717, 0.002635426353663206, 0.0025191339664161205, 0.00286373239941895, 0.002747252816334367, 0.002344350563362241, 0.0023448460269719362, 0.002441650489345193, 0.0026541014667600393, 0.0029792224522680044, 0.00267400243319571, 0.002808502409607172, 0.00236524804495275, 0.003056046785786748, 0.0027090897783637047, 0.0029409504495561123, 0.004165227059274912, 0.004980673547834158, 0.0034222870599478483, 0.00474789971485734, 0.004383014049381018, 0.0043797302059829235, 0.004016604274511337, 0.0050927260890603065, 0.004442478530108929, 0.003676400054246187, 0.0035814689472317696, 0.0031672297045588493, 0.003480300772935152, 0.0029025066178292036, 0.0031722229905426502, 0.003368882928043604, 0.004230687860399485, 0.003861745586618781, 0.004250817466527224, 0.0038076192140579224, 0.0044007147662341595, 0.004309598356485367, 0.004037529695779085, 0.004187154117971659, 0.004822378978133202, 0.004055508878082037, 0.004114277195185423, 0.0036957189440727234, 0.004134535789489746, 0.003906475380063057, 0.003286881372332573, 0.003458678489550948, 0.0027693905867636204, 0.002882121130824089, 0.0036718060728162527, 0.003748774528503418, 0.003518418874591589, 0.0032479388173669577, 0.003634056309238076, 0.0032473772298544645, 0.002884005196392536, 0.0035557777155190706, 0.003360473085194826, 0.0034446262288838625, 0.0037702457047998905, 0.003149606054648757, 0.0031923691276460886, 0.0032083303667604923, 0.0028643931727856398, 0.0027677405159920454, 0.0026725116185843945, 0.00293897301889956, 0.0038630072958767414, 0.003828542772680521, 0.002940667560324073, 0.003436162369325757, 0.004018766805529594, 0.004496886860579252, 0.0032873237505555153, 0.004497751127928495, 0.00503410492092371, 0.00406136317178607, 0.004381834529340267, 0.00365180941298604, 0.004092218820005655, 0.0035188246984034777, 0.003923378884792328, 0.004266194999217987, 0.003942535258829594, 0.0040159099735319614, 0.0037835866678506136, 0.004073006566613913, 0.0038835699670016766, 0.003326539183035493, 0.0035362853668630123, 0.0038413519505411386, 0.00382611365057528, 0.004764283541589975, 0.0037867866922169924, 0.004111668094992638, 0.0042442865669727325, 0.0047482652589678764, 0.004268820397555828, 0.004438978619873524, 0.0045928857289254665, 0.004324760753661394, 0.004399362485855818, 0.005092823877930641, 0.004535408690571785, 0.004287801682949066, 0.005110961850732565, 0.004552002064883709, 0.004265867173671722, 0.0035970532335340977, 0.004613610450178385, 0.003767492016777396, 0.004733044654130936, 0.004978662822395563, 0.004608471877872944, 0.003861968172714114, 0.004579389002174139, 0.004113169852644205, 0.004365048836916685, 0.003710468066856265, 0.005029756110161543, 0.004154645372182131, 0.004362615756690502, 0.004398686345666647, 0.003382924012839794, 0.003979085478931665, 0.0035978835076093674, 0.004505285061895847, 0.003441513516008854, 0.0034606733825057745, 0.003866946091875434, 0.0037501442711800337, 0.003919609356671572, 0.003768651047721505, 0.003324301913380623, 0.003421037457883358, 0.004170750733464956, 0.0035949095617979765, 0.004382676910609007, 0.003633427433669567, 0.0038653844967484474, 0.003421563422307372, 0.003996080718934536, 0.004328254610300064, 0.005036815069615841, 0.004070894792675972, 0.003690107725560665, 0.004286318551748991, 0.0039430661126971245, 0.003999230917543173, 0.003650055732578039, 0.0038032308220863342, 0.0038773082196712494, 0.004076374229043722, 0.0038057896308600903, 0.004570506513118744, 0.004522187635302544, 0.004117284901440144, 0.004629096016287804, 0.004575955215841532, 0.004728314466774464, 0.004866226576268673, 0.00425122631713748, 0.003959102090448141, 0.004190615378320217, 0.004980290308594704, 0.004496022593230009, 0.004632210358977318, 0.004690142814069986, 0.0047482652589678764, 0.004980002995580435, 0.004173959605395794, 0.004497491754591465, 0.004209757316857576, 0.004770331550389528, 0.004482148215174675, 0.004785424564033747, 0.004647411406040192, 0.003649494843557477, 0.004418912809342146, 0.004651430994272232, 0.004711719695478678, 0.00437947828322649, 0.004040015395730734, 0.004366728011518717, 0.004269230645149946, 0.004646608605980873, 0.0038276591803878546, 0.0038071065209805965, 0.0038648643530905247, 0.004500259645283222, 0.004976271186023951, 0.004842894151806831, 0.005072923377156258, 0.004496368113905191, 0.003999077249318361, 0.004919576458632946, 0.00492146797478199, 0.00522986426949501, 0.005419012624770403, 0.0047705150209367275, 0.004059175495058298, 0.004502511117607355, 0.004038073588162661, 0.004578683990985155, 0.004536542110145092, 0.004672537557780743, 0.0045553273521363735, 0.004823583643883467, 0.004671190399676561, 0.0046473219990730286, 0.004920522216707468, 0.004417130723595619, 0.004320857115089893, 0.0037466136272996664, 0.004152089357376099, 0.0037670573219656944, 0.00464651919901371, 0.004673795774579048, 0.0050703901797533035, 0.004323597066104412, 0.004534885752946138, 0.004640505183488131, 0.004444615449756384, 0.004191823769360781, 0.0042704627849161625, 0.004613255616277456, 0.004571560304611921, 0.004917308688163757, 0.005381717812269926, 0.004805474542081356, 0.004630696959793568, 0.004594298079609871, 0.0046542938798666, 0.004707645624876022, 0.004806398414075375, 0.004554189275950193, 0.004905544221401215, 0.0043578422628343105, 0.004742794670164585, 0.004476550966501236, 0.0054984139278531075, 0.004252371843904257, 0.004694744944572449, 0.004475433379411697, 0.0048040891997516155, 0.005464375484734774, 0.005924101918935776, 0.006014026235789061, 0.005809479858726263, 0.005725373979657888, 0.005749336443841457, 0.005539420060813427, 0.0058450293727219105, 0.005495138932019472, 0.005826699081808329, 0.0059193205088377, 0.005822780076414347, 0.0056944978423416615, 0.0054589142091572285, 0.005536012817174196, 0.005053902044892311, 0.004844383802264929, 0.004459394607692957, 0.005249696783721447, 0.004881611093878746, 0.004615917336195707, 0.005076044704765081, 0.005388864316046238, 0.005539527162909508, 0.005267710890620947, 0.005550220608711243, 0.0053206817246973515, 0.00539803272113204, 0.005075263790786266, 0.004975984338670969, 0.00549820251762867, 0.005001442972570658, 0.004440429154783487, 0.0053090197034180164, 0.004710723180323839, 0.005030528642237186, 0.005189413204789162, 0.005283381324261427, 0.005035265814512968, 0.005369411315768957, 0.004960393533110619, 0.00593511713668704, 0.006395359989255667, 0.005502962972968817, 0.005264067556709051, 0.004996252711862326, 0.005922849290072918, 0.007102984003722668, 0.005650043021887541, 0.0059015764854848385, 0.0052454606629908085, 0.0048634205013513565, 0.005844580475240946, 0.005420679226517677, 0.006094044540077448, 0.005653846077620983, 0.005425059236586094, 0.005799661856144667, 0.006270075216889381, 0.005837734322994947, 0.006185527425259352, 0.005844580475240946, 0.005211237818002701, 0.006475165486335754, 0.006359269842505455, 0.00636122515425086, 0.007204887457191944, 0.005687057971954346, 0.006077507510781288, 0.007308254949748516, 0.007956488989293575, 0.007442164700478315, 0.00785752758383751, 0.007684032432734966, 0.007075290195643902, 0.00874193012714386, 0.007793257478624582, 0.007658264134079218, 0.008079838007688522, 0.007788011804223061, 0.009786956012248993, 0.009930715896189213, 0.00793026015162468, 0.008458610624074936, 0.009223319590091705, 0.008341020904481411, 0.008227130398154259, 0.010530158877372742, 0.009437588974833488, 0.009784509427845478, 0.011574029922485352, 0.011698490008711815, 0.010317597538232803, 0.011140349321067333, 0.007569062989205122, 0.010036338120698929, 0.010184473358094692, 0.013074408285319805, 0.01162656582891941, 0.012051435187458992, 0.013501575216650963, 0.014029213227331638, 0.01498357579112053, 0.013566226698458195, 0.010378826409578323, 0.011806102469563484, 0.013712837360799313, 0.01479830127209425, 0.01520715095102787, 0.014345050789415836, 0.012821991927921772, 0.014718331396579742, 0.0152366291731596, 0.013918259181082249]","[0.0, 0.0, 8.827683632262051e-05, 8.827683632262051e-05, 2.2069209080655128e-05, 0.0, 4.4138418161310256e-05, 0.00024276130716316402, 2.2069209080655128e-05, 6.620762724196538e-05, 6.620762724196538e-05, 0.00011034604540327564, 0.00022069209080655128, 0.0, 0.00019862287444993854, 0.00013241525448393077, 4.4138418161310256e-05, 8.827683632262051e-05, 0.00013241525448393077, 0.00028689971077255905, 4.4138418161310256e-05, 6.620762724196538e-05, 0.0001544844708405435, 0.00013241525448393077, 2.2069209080655128e-05, 8.827683632262051e-05, 8.827683632262051e-05, 0.00033103814348578453, 0.00026483050896786153, 0.00028689971077255905, 0.0001544844708405435, 6.620762724196538e-05, 0.0001544844708405435, 0.00022069209080655128, 0.0006400070851668715, 0.00011034604540327564, 0.00017655367264524102, 6.620762724196538e-05, 0.00017655367264524102, 2.2069209080655128e-05, 0.00035310734529048204, 0.0011475988430902362, 0.0005517302197404206, 0.00028689971077255905, 0.00019862287444993854, 0.00017655367264524102, 0.00039724574889987707, 0.000308968941681087, 0.000308968941681087, 0.0006400070851668715, 0.00048552261432632804, 0.00044138418161310256, 0.00017655367264524102, 0.00028689971077255905, 0.0005296610179357231, 0.00044138418161310256, 0.00024276130716316402, 0.00041931497980840504, 0.00044138418161310256, 0.0006841454887762666, 0.0005296610179357231, 0.00044138418161310256, 0.0005517302197404206, 0.0009048375650309026, 0.0005296610179357231, 0.0009269067668356001, 0.0005296610179357231, 0.0006841454887762666, 0.0006620762869715691, 0.000617937883362174, 0.0008827683632262051, 0.0007724222959950566, 0.0009710452286526561, 0.001235875766724348, 0.0009489759686402977, 0.0009048375650309026, 0.0007944914977997541, 0.0012138064485043287, 0.0013462217757478356, 0.0014565677847713232, 0.0013020833721384406, 0.0012138064485043287, 0.0014344985829666257, 0.0016993291210383177, 0.0015007061883807182, 0.0013020833721384406, 0.002052436349913478, 0.0013682909775525331, 0.0015007061883807182, 0.0014124293811619282, 0.0015669137937948108, 0.0015007061883807182, 0.0016110523138195276, 0.0015448445919901133, 0.0014565677847713232, 0.001986228860914707, 0.002030367264524102, 0.0018317443318665028, 0.0019420904573053122, 0.0022510592825710773, 0.0019200211390852928, 0.0019200211390852928, 0.0017213983228430152, 0.0022951976861804724, 0.002802789444103837, 0.0022510592825710773, 0.0021186440717428923, 0.002471751533448696, 0.002515889937058091, 0.001986228860914707, 0.002626235829666257, 0.0023393360897898674, 0.0021186440717428923, 0.002493820618838072, 0.0021407133899629116, 0.0022951976861804724, 0.0027807203587144613, 0.0026483051478862762, 0.0022510592825710773, 0.0024276128970086575, 0.002626235829666257, 0.002758651040494442, 0.0029793432913720608, 0.0026483051478862762, 0.0029572739731520414, 0.002802789444103837, 0.0026041667442768812, 0.003067620098590851, 0.0028689971659332514, 0.002802789444103837, 0.0031338275875896215, 0.0026924435514956713, 0.0029793432913720608, 0.002714512636885047, 0.0032221046276390553, 0.0030455507803708315, 0.002758651040494442, 0.0030014123767614365, 0.002582097426056862, 0.0032662430312484503, 0.002560028340667486, 0.002670374233275652, 0.002626235829666257, 0.003200035309419036, 0.002096574753522873, 0.002537959022447467, 0.0032221046276390553, 0.002714512636885047, 0.0022069208789616823, 0.0026041667442768812, 0.003111758502200246, 0.003111758502200246, 0.003111758502200246, 0.0028469280805438757, 0.0029572739731520414, 0.0034427966456860304, 0.003420727327466011, 0.0030014123767614365, 0.0028469280805438757, 0.0031338275875896215, 0.0026924435514956713, 0.0030896891839802265, 0.0026483051478862762, 0.0024055438116192818, 0.0026483051478862762, 0.002802789444103837, 0.0028469280805438757, 0.0027365819551050663, 0.002582097426056862, 0.0026041667442768812, 0.002493820618838072, 0.002582097426056862, 0.0033986582420766354, 0.0036193502601236105, 0.00364141957834363, 0.002758651040494442, 0.002471751533448696, 0.002758651040494442, 0.0030455507803708315, 0.002626235829666257, 0.0026924435514956713, 0.0030014123767614365, 0.002802789444103837, 0.0030455507803708315, 0.00364141957834363, 0.0026483051478862762, 0.003111758502200246, 0.004060734529048204, 0.003067620098590851, 0.0031338275875896215, 0.0036634886637330055, 0.0034427966456860304, 0.003928319085389376, 0.0031779659911990166, 0.0037959038745611906, 0.0031779659911990166, 0.003200035309419036, 0.00372969638556242, 0.0033986582420766354, 0.003332450520247221, 0.0036193502601236105, 0.0031338275875896215, 0.0033545198384672403, 0.003332450520247221, 0.0037959038745611906, 0.0037517654709517956, 0.0042372881434857845, 0.003509004134684801, 0.003862111596390605, 0.0030014123767614365, 0.0030014123767614365, 0.0029352048877626657, 0.0037076270673424006, 0.003067620098590851, 0.003464865731075406, 0.0035752118565142155, 0.003332450520247221, 0.00364141957834363, 0.0038400422781705856, 0.0034427966456860304, 0.0037076270673424006, 0.004104872699826956, 0.0042372881434857845, 0.00399452680721879, 0.003288312116637826, 0.00399452680721879, 0.0029793432913720608, 0.00408280361443758, 0.004391772672533989, 0.004634534008800983, 0.004391772672533989, 0.005164194852113724, 0.00443591084331274, 0.004391772672533989, 0.00434763403609395, 0.004656603094190359, 0.004502118565142155, 0.0036634886637330055, 0.004634534008800983, 0.00408280361443758, 0.004126942250877619, 0.003972457721829414, 0.004104872699826956, 0.004369703587144613, 0.005075918044894934, 0.004457980394363403, 0.004678672179579735, 0.004833156708627939, 0.004568326286971569, 0.004325564950704575, 0.004899364430457354, 0.004899364430457354, 0.005318679381161928, 0.004965572152286768, 0.004656603094190359, 0.004546257201582193, 0.004391772672533989, 0.004634534008800983, 0.004215219058096409, 0.004038665443658829, 0.004126942250877619, 0.00425935722887516, 0.004943503066897392, 0.004987641237676144, 0.004590395372360945, 0.004413841757923365, 0.004678672179579735, 0.00434763403609395, 0.003928319085389376, 0.004126942250877619, 0.004281426779925823, 0.00425935722887516, 0.004413841757923365, 0.004016595892608166, 0.00408280361443758, 0.004325564950704575, 0.004303495865315199, 0.004193149507045746, 0.00425935722887516, 0.004457980394363403, 0.004877295345067978, 0.005075918044894934, 0.004325564950704575, 0.004656603094190359, 0.005009710323065519, 0.005627648439258337, 0.004877295345067978, 0.005120056681334972, 0.0057600634172558784, 0.004700741730630398, 0.005362818017601967, 0.0048110876232385635, 0.005031779874116182, 0.004656603094190359, 0.005230402573943138, 0.005892478860914707, 0.005429025273770094, 0.005142125766724348, 0.004744879901409149, 0.004678672179579735, 0.004281426779925823, 0.004766948986798525, 0.0047228108160197735, 0.004369703587144613, 0.004325564950704575, 0.004789018537849188, 0.004104872699826956, 0.004766948986798525, 0.005164194852113724, 0.005539371632039547, 0.005473163910210133, 0.004833156708627939, 0.005340748466551304, 0.005142125766724348, 0.005451094824820757, 0.005671786610037088, 0.006024894304573536, 0.0052745407447218895, 0.005429025273770094, 0.005451094824820757, 0.005826271139085293, 0.005517302080988884, 0.005318679381161928, 0.005429025273770094, 0.005715925246477127, 0.005429025273770094, 0.006002824753522873, 0.005406956188380718, 0.005539371632039547, 0.005561440717428923, 0.006157309282571077, 0.0052745407447218895, 0.0059366170316934586, 0.005826271139085293, 0.0064442092552781105, 0.006046963389962912, 0.005429025273770094, 0.0052745407447218895, 0.0058704097755253315, 0.0053848871029913425, 0.005649717524647713, 0.0058483402244746685, 0.005429025273770094, 0.006024894304573536, 0.0058704097755253315, 0.005605578888207674, 0.006069032475352287, 0.005517302080988884, 0.005980755668133497, 0.005075918044894934, 0.0059366170316934586, 0.005715925246477127, 0.0052745407447218895, 0.004965572152286768, 0.0057600634172558784, 0.005340748466551304, 0.006069032475352287, 0.0057821329683065414, 0.006046963389962912, 0.006201447919011116, 0.005495232995599508, 0.006024894304573536, 0.005693856161087751, 0.0064221397042274475, 0.006091101560741663, 0.006245586089789867, 0.0059586865827441216, 0.0064221397042274475, 0.005693856161087751, 0.0059366170316934586, 0.006069032475352287, 0.004833156708627939, 0.005318679381161928, 0.0059366170316934586, 0.006024894304573536, 0.005649717524647713, 0.005892478860914707, 0.005826271139085293, 0.004877295345067978, 0.005473163910210133, 0.005340748466551304, 0.005715925246477127, 0.005892478860914707, 0.006686970125883818, 0.006024894304573536, 0.005495232995599508, 0.0069076623767614365, 0.006069032475352287, 0.0058704097755253315, 0.005451094824820757, 0.005517302080988884, 0.0059586865827441216, 0.005671786610037088, 0.006046963389962912, 0.005649717524647713, 0.0057821329683065414, 0.005097987130284309, 0.005362818017601967, 0.005318679381161928, 0.0052745407447218895, 0.005627648439258337, 0.005495232995599508, 0.005539371632039547, 0.006267655175179243, 0.006113171111792326, 0.0059366170316934586, 0.006157309282571077, 0.005517302080988884, 0.006378001533448696, 0.006223517004400492, 0.0064442092552781105, 0.006841454654932022, 0.006267655175179243, 0.006554555147886276, 0.006819385569542646, 0.0065104165114462376, 0.0065324860624969006, 0.006488347426056862, 0.006245586089789867, 0.006797316484153271, 0.00728283915668726, 0.006731108762323856, 0.007260769605636597, 0.007922845892608166, 0.006686970125883818, 0.0071062855422496796, 0.0064442092552781105, 0.007172492798417807, 0.006973870098590851, 0.006664901040494442, 0.006819385569542646, 0.007437323685735464, 0.0069959391839802265, 0.006620762869715691, 0.006819385569542646, 0.006753177847713232, 0.006929731462150812, 0.007018008269369602, 0.006819385569542646, 0.006797316484153271, 0.007613877300173044, 0.00754766957834363, 0.007216631434857845, 0.007304908242076635, 0.0064221397042274475, 0.0069959391839802265, 0.006775247398763895, 0.007018008269369602, 0.007393185049295425, 0.00719456234946847, 0.006664901040494442, 0.006686970125883818, 0.007018008269369602, 0.006620762869715691, 0.007349046412855387, 0.00737111596390605, 0.00719456234946847, 0.00719456234946847, 0.0074814618565142155, 0.007658015470951796, 0.008033191785216331, 0.00798905361443758, 0.007304908242076635, 0.007702154107391834, 0.007216631434857845, 0.007040077820420265, 0.00719456234946847, 0.007018008269369602, 0.0074814618565142155, 0.006620762869715691, 0.006841454654932022, 0.00728283915668726, 0.007216631434857845, 0.008055261336266994, 0.0063338628970086575, 0.006024894304573536, 0.006775247398763895, 0.006046963389962912, 0.006245586089789867, 0.007326977327466011, 0.0063338628970086575, 0.007018008269369602, 0.006885593291372061, 0.006885593291372061, 0.007062146905809641, 0.006488347426056862, 0.0059586865827441216, 0.006576624233275652, 0.006466278340667486, 0.006598693318665028, 0.0065324860624969006, 0.006157309282571077, 0.005914547946304083, 0.006113171111792326, 0.006620762869715691, 0.0071062855422496796, 0.005980755668133497, 0.006179378367960453, 0.006245586089789867, 0.006046963389962912, 0.007150423713028431, 0.005561440717428923, 0.0058704097755253315, 0.005318679381161928, 0.006400070618838072, 0.007525600492954254, 0.006002824753522873, 0.0058704097755253315, 0.005318679381161928, 0.004855225794017315, 0.005406956188380718, 0.005583509802818298, 0.005583509802818298, 0.0058483402244746685, 0.005097987130284309, 0.005120056681334972, 0.005406956188380718, 0.004634534008800983, 0.004700741730630398, 0.00425935722887516, 0.00434763403609395, 0.005142125766724348, 0.004369703587144613, 0.004965572152286768, 0.004744879901409149, 0.0051862639375030994, 0.004590395372360945, 0.004833156708627939, 0.005097987130284309, 0.004215219058096409, 0.004789018537849188, 0.004899364430457354, 0.004590395372360945, 0.004789018537849188, 0.004457980394363403, 0.004656603094190359, 0.004700741730630398, 0.005252471659332514, 0.004281426779925823, 0.004833156708627939, 0.004215219058096409, 0.00434763403609395, 0.0047228108160197735, 0.00399452680721879, 0.0041490113362669945, 0.00443591084331274, 0.004568326286971569, 0.0037517654709517956, 0.004038665443658829, 0.004480049479752779, 0.004568326286971569, 0.004612464923411608, 0.0035531427711248398, 0.004678672179579735, 0.004038665443658829, 0.004877295345067978, 0.00425935722887516, 0.004325564950704575, 0.004612464923411608, 0.004744879901409149, 0.004877295345067978, 0.00452418765053153, 0.004568326286971569, 0.004965572152286768, 0.004987641237676144, 0.004921433515846729, 0.004303495865315199, 0.005009710323065519, 0.00452418765053153, 0.005517302080988884, 0.004855225794017315, 0.004369703587144613]","[0.0, 0.02314465306699276, 0.02371574565768242, 0.021693434566259384, 0.024926315993070602, 0.02087726630270481, 0.024335533380508423, 0.027079222723841667, 0.02247660420835018, 0.026601973921060562, 0.022632794454693794, 0.02411811612546444, 0.024700159206986427, 0.027744067832827568, 0.025068579241633415, 0.026457007974386215, 0.02887216955423355, 0.007899491116404533, 0.02373986504971981, 0.02701113186776638, 0.01883019506931305, 0.02451949380338192, 0.024352222681045532, 0.023946765810251236, 0.025703486055135727, 0.026127370074391365, 0.024320214986801147, 0.02512311190366745, 0.024222463369369507, 0.023083986714482307, 0.016234450042247772, 0.024884210899472237, 0.030392572283744812, 0.021061960607767105, 0.025159064680337906, 0.024976950138807297, 0.028233999386429787, 0.026082178577780724, 0.019036954268813133, 0.011410181410610676, 0.01906753145158291, 0.018936052918434143, 0.01799723133444786, 0.01414603739976883, 0.009593537077307701, 0.01200585626065731, 0.011413225904107094, 0.008190278895199299, 0.009558946825563908, 0.01782664842903614, 0.021004872396588326, 0.012560589239001274, 0.005970772355794907, 0.012667253613471985, 0.005153127480298281, 0.01275190245360136, 0.01649048551917076, 0.021456684917211533, 0.02018594555556774, 0.011463845148682594, 0.007040777709335089, 0.006678988691419363, 0.009685128927230835, 0.02268989011645317, 0.011731067672371864, 0.01800033450126648, 0.010687150061130524, 0.004442000295966864, 0.0016751119401305914, 0.0025417725555598736, 0.0015138135058805346, 0.002176460810005665, 0.0062397923320531845, 0.011908769607543945, 0.009839634411036968, 0.006922012194991112, 0.01181431021541357, 0.00708476547151804, 0.00743603752925992, 0.010130857117474079, 0.006332805845886469, 0.003445233451202512, 0.0031081989873200655, 0.001844322308897972, 0.001669031218625605, 0.0015902243321761489, 0.002333722310140729, 0.002053560223430395, 0.0024803464766591787, 0.007661071140319109, 0.006603142712265253, 0.004122670274227858, 0.004462982062250376, 0.005538306664675474, 0.003665936179459095, 0.00350284855812788, 0.0038759689778089523, 0.003810879774391651, 0.005206569563597441, 0.0032456722110509872, 0.006719301454722881, 0.004876613151282072, 0.006542252376675606, 0.0016865539364516735, 0.0017197264824062586, 0.00291619123890996, 0.0031449180096387863, 0.004866180010139942, 0.00618400564417243, 0.003921072464436293, 0.009908822365105152, 0.0031440036837011576, 0.0010937238112092018, 0.0027391486801207066, 0.000584209687076509, 0.003751949639990926, 0.004037797451019287, 0.010465944185853004, 0.007326160557568073, 0.007250628899782896, 0.006799848284572363, 0.006361323408782482, 0.001292689936235547, 0.0021034032106399536, 0.003585438709706068, 0.0026487282011657953, 0.003245521569624543, 0.0021344271954149008, 0.0007054527522996068, 0.0008773028966970742, 0.0022511256393045187, 0.0029995001386851072, 0.008770089596509933, 0.006085788831114769, 0.010962343774735928, 0.008378594182431698, 0.006565278861671686, 0.0031637665815651417, 0.0019877352751791477, 0.0010081068612635136, 0.001541345613077283, 0.0007962450617924333, 0.001983206020668149, 0.0013408195227384567, 0.0022575249895453453, 0.0008792496519163251, 0.0019408464431762695, 0.0009662647498771548, 0.0015887615736573935, 0.001298973336815834, 0.0018018773989751935, 0.0023213608656078577, 0.0016198031371459365, 0.0005493809003382921, 0.000626017281319946, 0.0007621628465130925, 0.0014698471641167998, 0.0010864115320146084, 0.0010491417488083243, 0.00206611561588943, 0.0019243641290813684, 0.0009222771623171866, 0.0028512724675238132, 0.0028848564252257347, 0.001218436285853386, 0.001500000013038516, 0.002352051669731736, 0.0028654502239078283, 0.0010091240983456373, 0.0006718736840412021, 0.0005008765147067606, 0.0006294322665780783, 0.00046160302008502185, 0.0005868790321983397, 0.0009630280546844006, 0.000543273868970573, 0.0006690921145491302, 0.0006247917772270739, 0.0005860438104718924, 0.0005513614742085338, 0.0007547169807367027, 0.0005818544887006283, 0.0009216975886374712, 0.000585382163990289, 0.0009255753247998655, 0.00033544382313266397, 0.0004629434843081981, 0.0006649765418842435, 0.0003770897164940834, 0.0005461725522764027, 0.0006285091512836516, 0.0002496982633601874, 0.0006772773340344429, 0.000875948928296566, 0.0007114161271601915, 0.000837906904052943, 0.0006343299173749983, 0.0007579585653729737, 0.00033677121973596513, 0.0006657789344899356, 0.0002519208937883377, 0.0006671392475254834, 0.0005478528328239918, 0.0005855535273440182, 0.0007159100496210158, 0.0005036091897636652, 0.0008836152846924961, 0.0005427974974736571, 0.001241978956386447, 0.0007983864634297788, 0.0005873961490578949, 0.0010138560319319367, 0.0008300477056764066, 0.0006332052871584892, 0.001014455920085311, 0.0006330182659439743, 0.0005472992779687047, 0.0006270116427913308, 0.00041981530375778675, 0.0003379234694875777, 0.0005019030068069696, 0.000547184085007757, 0.0004646251327358186, 0.00041914661414921284, 0.0004608487943187356, 0.0007952785235829651, 0.00037578289629891515, 0.00037316526868380606, 0.0026093178894370794, 0.00692763552069664, 0.0016897601308301091, 0.0022189656738191843, 0.0027225131634622812, 0.0021762787364423275, 0.0013004993088543415, 0.0018786005675792694, 0.0018112126272171736, 0.001798862125724554, 0.0008518249960616231, 0.00042172736721113324, 0.0010112501913681626, 0.0006753334309905767, 0.0005905927391722798, 0.000829978846013546, 0.0008462742553092539, 0.0007589812739752233, 0.0007474772282876074, 0.0008007754804566503, 0.0008380825165659189, 0.0009741222602315247, 0.0005480838008224964, 0.0010933558223769069, 0.0007590453024022281, 0.0010118044447153807, 0.0009243697859346867, 0.0011384718818590045, 0.0012250242289155722, 0.0008766070823185146, 0.000796145002823323, 0.0003764430293813348, 0.0003800836275331676, 0.0009276437922380865, 0.0007643636781722307, 0.0005895729409530759, 0.0008392077870666981, 0.0007996969507075846, 0.0005412381724454463, 0.0006320579559542239, 0.0006296436185948551, 0.0010479983175173402, 0.0009215431637130678, 0.0003377522516530007, 0.0010928042465820909, 0.00042045069858431816, 0.000505071715451777, 0.0003779607068281621, 0.000798419991042465, 0.0006305435090325773, 0.0002112289221258834, 0.0005814195028506219, 0.0005418020882643759, 0.0005868298467248678, 0.00058707594871521, 0.0007969129947014153, 0.0008410429581999779, 0.0007997305947355926, 0.0005006884457543492, 0.0007542742532677948, 0.0009571767295710742, 0.0009213887387886643, 0.0005864365375600755, 0.0007104053511284292, 0.0006296700448729098, 0.0006759040406905115, 0.0008709717658348382, 0.0009281525854021311, 0.0010030928533524275, 0.000965048442594707, 0.0005898710805922747, 0.0009661835501901805, 0.0011362680234014988, 0.000590542855206877, 0.0008745991508476436, 0.0005854066694155335, 0.0005854801274836063, 0.0017213872633874416, 0.0006675845943391323, 0.0009169722907245159, 0.0009197324397973716, 0.000962383346632123, 0.0007214701035991311, 0.0010519229108467698, 0.001680178102105856, 0.0008835409535095096, 0.0007081563235260546, 0.0012541281757876277, 0.0007537372875958681, 0.0009232060401700437, 0.0010370000964030623, 0.001297071110457182, 0.001494085881859064, 0.0005871005123481154, 0.0007977494969964027, 0.0006302521214820445, 0.0005406978889368474, 0.0014615609543398023, 0.0007939160568639636, 0.0007960448856465518, 0.0009642393561080098, 0.0007948792772367597, 0.0013292900985106826, 0.0006347593734972179, 0.0010930800344794989, 0.0011371293803676963, 0.000881390122231096, 0.0005907671875320375, 0.001011889660730958, 0.0005058595561422408, 0.0006705221603624523, 0.001359330490231514, 0.0012081823078915477, 0.001209694310091436, 0.0009580938494764268, 0.0007520053768530488, 0.0006323510897345841, 0.0006312068435363472, 0.0008010455640032887, 0.000795611587818712, 0.0006678353529423475, 0.0005878647789359093, 0.0007561754318885505, 0.000842034351080656, 0.0010598159860819578, 0.0004222616262268275, 0.0009208103292621672, 0.0015561911277472973, 0.0018600719049572945, 0.0012538136215880513, 0.0013776979176327586, 0.0021468258928507566, 0.0011345967650413513, 0.0013833576813340187, 0.0006717890501022339, 0.0010170785244554281, 0.0008808355196379125, 0.001054051797837019, 0.000965048442594707, 0.0008839499787427485, 0.0012126280926167965, 0.0010516574839130044, 0.0008842105744406581, 0.0015175787266343832, 0.0017727502854540944, 0.0023434883914887905, 0.0008367150439880788, 0.0006301726680248976, 0.0007059507188387215, 0.0038555024657398462, 0.0013047137763351202, 0.0008397363126277924, 0.001170568517409265, 0.0010398469166830182, 0.0013490156270563602, 0.0008774495217949152, 0.0017329556867480278, 0.0015101938042789698, 0.0013815045822411776, 0.001473311916925013, 0.003047762205824256, 0.0020437955390661955, 0.0009285834385082126, 0.0017667845822870731, 0.00269848620519042, 0.0013028493849560618, 0.0015518182190135121, 0.0007636502268724144, 0.0012633175356313586, 0.0009193096775561571, 0.001722833956591785, 0.0008404068066738546, 0.0007949125138111413, 0.0008014172199182212, 0.001173856551758945, 0.0010046043898910284, 0.0018098404398187995, 0.0012605570955201983, 0.0008868991862982512, 0.0009269792935810983, 0.0009640775970183313, 0.0013079617638140917, 0.0015108275692909956, 0.002051325049251318, 0.0018187201349064708, 0.0012535516871139407, 0.00100494094658643, 0.000961699231993407, 0.0009252639138139784, 0.000978140626102686, 0.0010946907568722963, 0.0008917954401113093, 0.0014356895117089152, 0.0007561119273304939, 0.0010860030306503177, 0.0008819453069008887, 0.0007596859941259027, 0.0009322428377345204, 0.0006277726497501135, 0.0005826535634696484, 0.0006281670066528022, 0.000998336123302579, 0.0007965789409354329, 0.001506780507043004, 0.0006738544325344265, 0.0006743088597431779, 0.0005021970719099045, 0.000788381730671972, 0.0008407954010181129, 0.000668225868139416, 0.000633392424788326, 0.0007994950283318758, 0.0010107816196978092, 0.001121309120208025, 0.0015897585544735193, 0.0010132140014320612, 0.0021367520093917847, 0.0016336446860805154, 0.000794347608461976, 0.0015085485065355897, 0.0011340725468471646, 0.000883355038240552, 0.0009190025157295167, 0.0010535187320783734, 0.0012601865455508232, 0.001961930189281702, 0.000827061478048563, 0.0006303315749391913, 0.0009163994109258056, 0.000670157081913203, 0.0014243819750845432, 0.003647668519988656, 0.00202899775467813, 0.001298973336815834, 0.0016904027434065938, 0.0007970801671035588, 0.0009599733166396618, 0.0012117159785702825, 0.001516875228844583, 0.0017693149857223034, 0.0019783643074333668, 0.0034604996908456087, 0.0008390669245272875, 0.0015130500541999936, 0.0015941603342071176, 0.000504816765896976, 0.0006375653902068734, 0.0009243309614248574, 0.0010098459897562861, 0.0012337275547906756, 0.0005889777094125748, 0.0013815045822411776, 0.0008724553626962006, 0.0006651700241491199, 0.0005835521733388305, 0.000876168254762888, 0.0005472071352414787, 0.001131695811636746, 0.001055966131389141, 0.0010546743869781494, 0.0006716480711475015, 0.0008800234645605087, 0.0006725515122525394, 0.0008795074536465108, 0.0008760951459407806, 0.0008371704025194049, 0.0008773028966970742, 0.0009685434051789343, 0.0007140457164496183, 0.0012101485626772046, 0.0007084218668751419, 0.0009675248293206096, 0.0011805379763245583, 0.0010970464209094644, 0.0008826867560856044, 0.0005053908098489046, 0.0009626653627492487, 0.0012202305952087045, 0.0010060361819341779, 0.0008392077870666981, 0.001052897539921105, 0.0009686657576821744, 0.0009599733166396618, 0.0009633104782551527, 0.0010993657633662224, 0.0009139628964476287, 0.0008746720268391073, 0.001128620933741331, 0.001089415862224996, 0.0014987511094659567, 0.001344820368103683, 0.0012130338000133634, 0.001042057410813868, 0.0014328458346426487, 0.0013810420641675591, 0.0012946876231580973, 0.002149540465325117, 0.0018061156151816249, 0.0011756308376789093, 0.0015757421497255564, 0.0015547525836154819, 0.0015548830851912498, 0.0030301755759865046, 0.002104199957102537, 0.002345058601349592, 0.0034368583001196384, 0.002547717420384288, 0.002711836015805602, 0.0020420069340616465, 0.002390538342297077, 0.00245919032022357, 0.005042228382080793, 0.004163024015724659, 0.00671140942722559, 0.004207982681691647, 0.009345010854303837, 0.009038930758833885, 0.013463789597153664, 0.009169317781925201, 0.015821857377886772, 0.013142425566911697, 0.009983640164136887, 0.009058122523128986, 0.012067950330674648, 0.0206263680011034, 0.020178241655230522, 0.020636718720197678, 0.025218559429049492, 0.020258840173482895, 0.019558070227503777, 0.022596275433897972, 0.023187678307294846, 0.02362038381397724, 0.024840818718075752, 0.029392005875706673, 0.027069060131907463, 0.02632792666554451, 0.02852928824722767, 0.024933775886893272, 0.019523970782756805, 0.021853551268577576, 0.021652469411492348, 0.0257759727537632, 0.02188146859407425]","[0.0, 0.019051043316721916, 0.019288010895252228, 0.01847437396645546, 0.025898078456521034, 0.020969854667782784, 0.022463854402303696, 0.0282895527780056, 0.025558726862072945, 0.028162291273474693, 0.02781740389764309, 0.023792529478669167, 0.024136696010828018, 0.03147728741168976, 0.02557392604649067, 0.02801724150776863, 0.029986806213855743, 0.02127406746149063, 0.02636602148413658, 0.02751096896827221, 0.022916171699762344, 0.02618483453989029, 0.027767889201641083, 0.023416142910718918, 0.029551954939961433, 0.027903111651539803, 0.029087023809552193, 0.02837468683719635, 0.027734609320759773, 0.02535581961274147, 0.029576625674962997, 0.0272271316498518, 0.029983408749103546, 0.022129185497760773, 0.023945676162838936, 0.029351618140935898, 0.03328145667910576, 0.029197949916124344, 0.0249379500746727, 0.024836601689457893, 0.030230896547436714, 0.031683873385190964, 0.02548903413116932, 0.02493765577673912, 0.02059633657336235, 0.025163983926177025, 0.031156737357378006, 0.025750059634447098, 0.027767803519964218, 0.03224654868245125, 0.03151862323284149, 0.02139356918632984, 0.024789467453956604, 0.03369980677962303, 0.029443318024277687, 0.029359111562371254, 0.03337320685386658, 0.026240458711981773, 0.030150150880217552, 0.02299395389854908, 0.032058894634246826, 0.030710171908140182, 0.024774502962827682, 0.028727443888783455, 0.029250238090753555, 0.026572927832603455, 0.025515679270029068, 0.023968517780303955, 0.022576045244932175, 0.02814885415136814, 0.014599406160414219, 0.014278914779424667, 0.023250268772244453, 0.02963227406144142, 0.025131642818450928, 0.025778094306588173, 0.02980448305606842, 0.031332217156887054, 0.026927201077342033, 0.030782129615545273, 0.028300754725933075, 0.027254413813352585, 0.026981651782989502, 0.027615761384367943, 0.016299821436405182, 0.024358365684747696, 0.0188769418746233, 0.018664751201868057, 0.021855328232049942, 0.0319770909845829, 0.02577565610408783, 0.024113643914461136, 0.023166486993432045, 0.028380634263157845, 0.02916218526661396, 0.026412850245833397, 0.02183976210653782, 0.02192564308643341, 0.024142464622855186, 0.026767736300826073, 0.03336113318800926, 0.02535581961274147, 0.028957759961485863, 0.024223528802394867, 0.025922829285264015, 0.025460196658968925, 0.02881295420229435, 0.029533863067626953, 0.024140801280736923, 0.02317247912287712, 0.031223829835653305, 0.0302885752171278, 0.022113898769021034, 0.027492230758070946, 0.01691281609237194, 0.026021862402558327, 0.021174781024456024, 0.02748565934598446, 0.017750775441527367, 0.0159485824406147, 0.020793726667761803, 0.022182680666446686, 0.023219814524054527, 0.021012866869568825, 0.02117031440138817, 0.021097546443343163, 0.019311001524329185, 0.028554432094097137, 0.021581018343567848, 0.02152080275118351, 0.029868578538298607, 0.02658242918550968, 0.025861041620373726, 0.03177637234330177, 0.03236980363726616, 0.02956957183778286, 0.02874450571835041, 0.024260355159640312, 0.024021880701184273, 0.017782552167773247, 0.01996891014277935, 0.013992647640407085, 0.02417713962495327, 0.019810201600193977, 0.021801287308335304, 0.02321704849600792, 0.026572927832603455, 0.022248802706599236, 0.026682548224925995, 0.018865685909986496, 0.018028702586889267, 0.022557297721505165, 0.021327296271920204, 0.013303242623806, 0.013902091421186924, 0.009178685955703259, 0.014444311149418354, 0.01726396009325981, 0.01160175260156393, 0.019916517660021782, 0.020451843738555908, 0.008220157586038113, 0.015954280272126198, 0.016332857310771942, 0.010977210476994514, 0.00914815254509449, 0.01184974517673254, 0.019572952762246132, 0.017068512737751007, 0.003929974976927042, 0.00988565944135189, 0.006792992353439331, 0.004282655194401741, 0.007961026392877102, 0.006662700790911913, 0.006414063274860382, 0.01070027332752943, 0.013445978052914143, 0.01163895521312952, 0.009511354379355907, 0.02150537632405758, 0.016827784478664398, 0.018125075846910477, 0.011811023578047752, 0.003675163025036454, 0.0028608893044292927, 0.006242496892809868, 0.0054931933991611, 0.004287245683372021, 0.0021580145694315434, 0.002274631755426526, 0.0026140683330595493, 0.0027273804880678654, 0.010979830287396908, 0.014861490577459335, 0.006466291379183531, 0.012677725404500961, 0.008565310388803482, 0.006126862019300461, 0.018789391964673996, 0.008223095908761024, 0.00613054446876049, 0.002734189387410879, 0.002738421317189932, 0.004066012799739838, 0.006445452570915222, 0.01031783688813448, 0.011358258314430714, 0.024515055119991302, 0.01628045178949833, 0.024080663919448853, 0.022578729316592216, 0.01897374726831913, 0.009962049312889576, 0.008913715369999409, 0.012759360484778881, 0.005738880950957537, 0.003223495790734887, 0.002503874944522977, 0.008807426318526268, 0.009143806993961334, 0.00619859341531992, 0.003201327985152602, 0.004625785630196333, 0.004397955723106861, 0.007391511928290129, 0.011351415887475014, 0.003932316787540913, 0.02753065712749958, 0.034818775951862335, 0.023203236982226372, 0.023710234090685844, 0.030487079173326492, 0.02620244026184082, 0.030303029343485832, 0.03102255053818226, 0.028629127889871597, 0.029776673763990402, 0.017684508115053177, 0.010937499813735485, 0.0193839929997921, 0.016205910593271255, 0.011187812313437462, 0.016646988689899445, 0.01925133727490902, 0.018047088757157326, 0.02563493885099888, 0.016399286687374115, 0.021720968186855316, 0.019196586683392525, 0.021180391311645508, 0.023108236491680145, 0.019720328971743584, 0.02098235674202442, 0.022732682526111603, 0.022329868748784065, 0.021271539852023125, 0.016447756439447403, 0.013347634114325047, 0.018511883914470673, 0.007839410565793514, 0.006331382319331169, 0.010121457278728485, 0.0034527918323874474, 0.011423132382333279, 0.01276392675936222, 0.011298762634396553, 0.014449486508965492, 0.015229030512273312, 0.01955174095928669, 0.014868105761706829, 0.014791148714721203, 0.016370106488466263, 0.012461059726774693, 0.003564215265214443, 0.003825920633971691, 0.0060728746466338634, 0.009060562588274479, 0.00440214155241847, 0.004906066693365574, 0.013000953942537308, 0.006992178037762642, 0.007034696638584137, 0.008770875632762909, 0.01034482754766941, 0.011694510467350483, 0.00821624230593443, 0.01644815318286419, 0.013498984277248383, 0.013588561676442623, 0.01037814561277628, 0.008823178708553314, 0.008725794963538647, 0.009631391614675522, 0.010807600803673267, 0.00501253129914403, 0.005820168647915125, 0.01325689721852541, 0.013295005075633526, 0.014343773014843464, 0.016781717538833618, 0.012604042887687683, 0.009064885787665844, 0.01760268211364746, 0.013325401581823826, 0.023678544908761978, 0.013225306756794453, 0.01278527919203043, 0.018332134932279587, 0.014886269345879555, 0.015099274925887585, 0.01563805714249611, 0.024465925991535187, 0.014898689463734627, 0.01757742464542389, 0.019565735012292862, 0.015749910846352577, 0.010109419003129005, 0.01672440581023693, 0.015926236286759377, 0.020776119083166122, 0.0135247353464365, 0.013577894307672977, 0.010247855447232723, 0.013979386538267136, 0.019418632611632347, 0.012473015114665031, 0.014575866982340813, 0.016579819843173027, 0.013590844348073006, 0.014027579687535763, 0.007856207899749279, 0.012971415184438229, 0.01732731983065605, 0.017654776573181152, 0.01077199261635542, 0.011680572293698788, 0.012508935295045376, 0.010069896467030048, 0.016751209273934364, 0.012494050897657871, 0.015351660549640656, 0.013867488130927086, 0.010453789494931698, 0.010035842657089233, 0.014034252613782883, 0.006686566863209009, 0.012760882265865803, 0.012638607062399387, 0.012741128914058208, 0.012033837847411633, 0.012263364158570766, 0.014971482567489147, 0.010484927333891392, 0.011476390063762665, 0.01672201044857502, 0.018692702054977417, 0.016668666154146194, 0.008586762472987175, 0.015017878264188766, 0.01079990528523922, 0.012610040605068207, 0.00968667771667242, 0.008976660668849945, 0.006972830276936293, 0.016054227948188782, 0.00917759258300066, 0.011866235174238682, 0.010177514515817165, 0.014928909949958324, 0.015082594938576221, 0.021415824070572853, 0.017880557104945183, 0.02065281942486763, 0.007828252390027046, 0.015028625726699829, 0.010958904400467873, 0.02187611535191536, 0.012425328604876995, 0.012635594233870506, 0.02180648222565651, 0.014409908093512058, 0.021646050736308098, 0.0135279456153512, 0.021461786702275276, 0.014534191228449345, 0.019577598199248314, 0.018382353708148003, 0.025169985368847847, 0.022051773965358734, 0.014843189157545567, 0.02079598419368267, 0.02550959587097168, 0.0191256832331419, 0.02046678587794304, 0.01742532104253769, 0.018975332379341125, 0.0131891630589962, 0.01787642575800419, 0.014360313303768635, 0.013082778081297874, 0.01355690322816372, 0.020786317065358162, 0.014219142496585846, 0.01909080147743225, 0.0185074619948864, 0.01576307602226734, 0.011899095959961414, 0.018498627468943596, 0.018573639914393425, 0.022481266409158707, 0.021726153790950775, 0.02313167229294777, 0.01636040396988392, 0.015512137673795223, 0.01224586833268404, 0.012565197423100471, 0.014295926317572594, 0.014506540261209011, 0.0045297411270439625, 0.010620525106787682, 0.007742703892290592, 0.00874985009431839, 0.007152223028242588, 0.006230529863387346, 0.008869711309671402, 0.0022702831774950027, 0.0036931142676621675, 0.004769854247570038, 0.00575953908264637, 0.009377967566251755, 0.011258833110332489, 0.007879655808210373, 0.007880596444010735, 0.0042442819103598595, 0.008646216243505478, 0.0054696789011359215, 0.002490807557478547, 0.002859866712242365, 0.01137043721973896, 0.01938958838582039, 0.016571292653679848, 0.01251191645860672, 0.008361204527318478, 0.014413340948522091, 0.01626885123550892, 0.013018034398555756, 0.01630564033985138, 0.012535816989839077, 0.010552525520324707, 0.007206341717392206, 0.018351925536990166, 0.014700609259307384, 0.016188548877835274, 0.005802250001579523, 0.005685183219611645, 0.004069906659424305, 0.0047749788500368595, 0.018003080040216446, 0.02065281942486763, 0.02568390965461731, 0.012571156956255436, 0.014939643442630768, 0.010225921869277954, 0.013412462547421455, 0.01332381647080183, 0.011708483099937439, 0.015569289214909077, 0.01848980039358139, 0.023511158302426338, 0.011498340405523777, 0.011679179966449738, 0.012629572302103043, 0.0064462218433618546, 0.006669048685580492, 0.009414848871529102, 0.00903363898396492, 0.009303434751927853, 0.007955355569720268, 0.00892113707959652, 0.007922431454062462, 0.008901020511984825, 0.005356505513191223, 0.010184519924223423, 0.01077199261635542, 0.015191387385129929, 0.012025240808725357, 0.008725794963538647, 0.0059530893340706825, 0.005218835081905127, 0.00476530846208334, 0.0071182819083333015, 0.0055905794724822044, 0.007199423853307962, 0.006796231959015131, 0.003585943253710866, 0.00501013919711113, 0.008515670895576477, 0.00940028578042984, 0.01041541900485754, 0.013897208496928215, 0.01279014628380537, 0.005618649534881115, 0.005610600579530001, 0.006180176045745611, 0.008150247856974602, 0.007755637634545565, 0.006669842638075352, 0.007048142608255148, 0.006670637056231499, 0.00702213728800416, 0.0030978196300566196, 0.010716837830841541, 0.00368345994502306, 0.0035566093865782022, 0.00527325039729476, 0.00724207516759634, 0.006593933328986168, 0.007776049897074699, 0.006308021955192089, 0.0047545465640723705, 0.0043005612678825855, 0.005139851942658424, 0.002147458726540208, 0.003226577304303646, 0.0043021030724048615, 0.0047500296495854855, 0.0026128266472369432, 0.0029822257347404957, 0.004396910313516855, 0.006456241011619568, 0.005861244164407253, 0.008210375905036926, 0.008962715044617653, 0.006865530274808407, 0.0076959505677223206, 0.00770063791424036, 0.005230001173913479, 0.010347288101911545, 0.011352885514497757, 0.011275039054453373, 0.01512264832854271, 0.00919512752443552, 0.015267175622284412, 0.012391278520226479, 0.018865671008825302, 0.01537544745951891, 0.024895770475268364, 0.023325003683567047, 0.022852357476949692, 0.017206357792019844, 0.025260385125875473, 0.02427648939192295, 0.029030339792370796, 0.027459407225251198, 0.02855103649199009, 0.026849642395973206, 0.02682083658874035, 0.02755150943994522, 0.02945699729025364, 0.02787414751946926, 0.025074627250432968, 0.027781089767813683, 0.026281364262104034, 0.025155724957585335, 0.031850170344114304, 0.0247589573264122, 0.021873515099287033, 0.022987136617302895, 0.023222748190164566, 0.03200569003820419, 0.02250535786151886]","[0.0, 0.01443326286971569, 0.01390360202640295, 0.00834216084331274, 0.015956038609147072, 0.004766948986798525, 0.008474576286971569, 0.015161546878516674, 0.0011917372466996312, 0.016287077218294144, 0.0012579449685290456, 0.012579449452459812, 0.014036016538739204, 0.0074814618565142155, 0.0023172670044004917, 0.014168431982398033, 0.010195974260568619, 0.00033103814348578453, 0.0023172670044004917, 0.0021186440717428923, 0.0012579449685290456, 0.011122881434857845, 0.013042902573943138, 0.009202860295772552, 0.010328389704227448, 0.00834216084331274, 0.008209745399653912, 0.008011123165488243, 0.006819385569542646, 0.00390625, 0.003773834789171815, 0.004700741730630398, 0.016419490799307823, 0.011387712322175503, 0.007018008269369602, 0.006885593291372061, 0.009666313417255878, 0.007216631434857845, 0.002515889937058091, 0.0014565677847713232, 0.001986228860914707, 0.0015227753901854157, 0.0018538135336712003, 0.0022510592825710773, 0.0009269067668356001, 0.0009269067668356001, 0.0011917372466996312, 0.0007944914977997541, 0.0011917372466996312, 0.0035752118565142155, 0.006024894304573536, 0.0021186440717428923, 0.002449682215228677, 0.007680084556341171, 0.0021186440717428923, 0.006024894304573536, 0.004833156708627939, 0.009269068017601967, 0.0078125, 0.0019200211390852928, 0.003111758502200246, 0.0021848517935723066, 0.0035752118565142155, 0.008474576286971569, 0.0026483051478862762, 0.002052436349913478, 0.0017213983228430152, 0.00026483050896786153, 0.0009931144304573536, 0.0015889829955995083, 0.00046345338341780007, 0.00026483050896786153, 0.0006620762869715691, 0.0009931144304573536, 0.0005296610179357231, 0.0012579449685290456, 0.0011917372466996312, 0.0010593220358714461, 0.0009931144304573536, 0.0009269067668356001, 0.0010593220358714461, 0.0007282838923856616, 0.00046345338341780007, 0.0011255296412855387, 0.00039724574889987707, 0.00039724574889987707, 0.00033103814348578453, 0.0006620762869715691, 0.00039724574889987707, 0.0007282838923856616, 0.0009931144304573536, 0.0005296610179357231, 0.0005958686233498156, 0.0009269067668356001, 0.00026483050896786153, 0.0011917372466996312, 0.006024894304573536, 0.012380826286971569, 0.011851165443658829, 0.0015889829955995083, 0.003376588923856616, 0.0038400422781705856, 0.003972457721829414, 0.0009931144304573536, 0.0012579449685290456, 0.0014565677847713232, 0.011387712322175503, 0.0017876059282571077, 0.0010593220358714461, 0.007349046412855387, 0.003376588923856616, 0.0029131355695426464, 0.0011917372466996312, 0.0014565677847713232, 0.0007282838923856616, 0.011255296878516674, 0.009864936582744122, 0.013506355695426464, 0.011387712322175503, 0.005892478860914707, 0.015426376834511757, 0.013704978860914707, 0.0035752118565142155, 0.006620762869715691, 0.0034427966456860304, 0.00754766957834363, 0.0027807203587144613, 0.0007282838923856616, 0.0008606991614215076, 0.0023172670044004917, 0.0057600634172558784, 0.0030455507803708315, 0.003376588923856616, 0.010858050547540188, 0.009732521139085293, 0.012182203121483326, 0.007878707721829414, 0.0057600634172558784, 0.015691207721829414, 0.005230402573943138, 0.006289724726229906, 0.00390625, 0.0028469280805438757, 0.002582097426056862, 0.011586334556341171, 0.0030455507803708315, 0.002714512636885047, 0.0010593220358714461, 0.008209745399653912, 0.008805613964796066, 0.0026483051478862762, 0.0059586865827441216, 0.009335275739431381, 0.010195974260568619, 0.00999735202640295, 0.010990465991199017, 0.007150423713028431, 0.0026483051478862762, 0.008209745399653912, 0.010924258269369602, 0.00834216084331274, 0.006157309282571077, 0.014168431982398033, 0.0160884540528059, 0.008474576286971569, 0.009269068017601967, 0.011387712322175503, 0.008805613964796066, 0.017081568017601967, 0.006819385569542646, 0.007613877300173044, 0.0005958686233498156, 0.00019862287444993854, 0.0006620762869715691, 0.00019862287444993854, 0.00039724574889987707, 0.00033103814348578453, 0.0006620762869715691, 0.00019862287444993854, 0.00046345338341780007, 0.0005296610179357231, 0.00046345338341780007, 0.00046345338341780007, 0.00039724574889987707, 0.0005296610179357231, 0.00026483050896786153, 0.00033103814348578453, 0.00046345338341780007, 0.00033103814348578453, 0.0005958686233498156, 0.00033103814348578453, 0.00026483050896786153, 0.00039724574889987707, 0.0005296610179357231, 0.0006620762869715691, 0.00039724574889987707, 0.0005296610179357231, 0.0005296610179357231, 0.00046345338341780007, 0.0005958686233498156, 0.00033103814348578453, 0.00019862287444993854, 0.00046345338341780007, 0.00013241525448393077, 6.620762724196538e-05, 0.00019862287444993854, 0.0005296610179357231, 0.0005958686233498156, 0.0011917372466996312, 0.0007282838923856616, 0.0005296610179357231, 0.00046345338341780007, 0.0007282838923856616, 0.00046345338341780007, 0.00033103814348578453, 0.00033103814348578453, 0.00013241525448393077, 0.00039724574889987707, 0.00039724574889987707, 0.0005958686233498156, 0.00046345338341780007, 0.00013241525448393077, 0.00046345338341780007, 0.0, 0.0005958686233498156, 0.00033103814348578453, 0.00033103814348578453, 0.00013241525448393077, 0.0005296610179357231, 0.0009269067668356001, 0.00013241525448393077, 0.0008606991614215076, 0.0006620762869715691, 0.0006620762869715691, 0.00046345338341780007, 0.00039724574889987707, 0.0007282838923856616, 0.00046345338341780007, 0.00019862287444993854, 0.00019862287444993854, 0.00033103814348578453, 0.0005958686233498156, 0.00033103814348578453, 0.00039724574889987707, 0.00033103814348578453, 0.00039724574889987707, 0.00033103814348578453, 0.0007282838923856616, 0.00039724574889987707, 0.00046345338341780007, 0.00039724574889987707, 0.00026483050896786153, 0.0005296610179357231, 0.00026483050896786153, 0.00019862287444993854, 0.00026483050896786153, 0.00013241525448393077, 0.00013241525448393077, 0.00019862287444993854, 0.00046345338341780007, 6.620762724196538e-05, 0.00019862287444993854, 0.00019862287444993854, 0.00026483050896786153, 0.00026483050896786153, 0.00039724574889987707, 0.00019862287444993854, 0.00019862287444993854, 0.00033103814348578453, 0.0005958686233498156, 0.00033103814348578453, 0.00033103814348578453, 0.00026483050896786153, 0.00033103814348578453, 0.00019862287444993854, 0.00046345338341780007, 6.620762724196538e-05, 0.00039724574889987707, 0.00026483050896786153, 0.00039724574889987707, 