last_val_loss,dataset,ul2,causal_denoisers,noncausal_masking,causal_divider,s_divider,r_divider,x_divider,randomize_denoiser_settings,randomize_mask_width,no_special_tokens,alternate_denoisers,progressive_tasks,model_scale,depth,width,num_params,num_non_embedding_params,num_heads,linear_value,seed,run_num,max_epochs,max_steps,max_tokens,max_time_seconds,gpu_capacity_scalar,train_loss_causal,train_pplx_causal,train_acc_causal,train_loss_s,train_pplx_s,train_loss_r,train_pplx_r,train_loss_x,train_pplx_x,train_acc_x_causal,train_acc_r_causal,train_acc_s_causal,train_acc_x_masked,train_acc_r_masked,train_acc_s_masked,val_loss_causal,val_pplx_causal,val_acc_causal,val_loss_s,val_pplx_s,val_loss_r,val_pplx_r,val_loss_x,val_pplx_x,grad_norm,cumulative_time,tokens_seen,epoch,batch_size,seq_length,learning_rate,weight_decay
2.77734375,fineweb,true,true,false,1000.0,1000.0,1.0,1.0,true,true,true,true,false,28.980368741954965,43,2048,1333379115,1127309355,1,false,1600,1,1.0,1000000000,1000000000000,1000000000,1.9,"[10.9375, 7.53125, 7.25, 6.9375, 6.78125, 6.59375, 6.40625, 6.5625, 6.21875, 5.96875, 5.8125, 5.84375, 5.875, 5.6875, 5.9375, 5.96875, 5.71875, 5.78125, 5.9375, 5.625, 6.03125, 5.59375, 5.625, 5.5625, 5.5625, 5.78125, 5.53125, 5.40625, 5.34375, 5.4375, 5.4375, 5.28125, 5.34375, 5.3125, 5.1875, 5.5, 5.28125, 5.21875, 5.5, 5.21875, 5.46875, 5.46875, 5.34375, 5.03125, 5.09375, 5.4375, 5.21875, 5.21875, 5.1875, 5.25, 5.09375, 4.96875, 5.25, 5.0625, 4.875, 5.3125, 5.125, 5.09375, 5.125, 5.03125, 4.96875, 5.0, 5.09375, 5.125, 4.84375, 4.875, 5.0, 4.71875, 4.71875, 4.71875, 4.78125, 4.75, 5.0625, 4.8125, 4.75, 4.90625, 4.59375, 4.75, 4.5625, 4.65625, 4.78125, 4.4375, 4.59375, 4.625, 4.6875, 4.78125, 4.625, 4.5625, 4.40625, 4.46875, 4.40625, 4.6875, 4.53125, 4.40625, 4.40625, 4.53125, 4.6875, 4.75, 4.34375, 4.4375, 4.53125, 4.53125, 4.1875, 4.1875, 4.34375, 4.40625, 4.0625, 4.34375, 4.40625, 4.21875, 4.375, 4.3125, 4.34375, 4.34375, 4.3125, 4.09375, 4.125, 4.28125, 4.3125, 4.1875, 4.3125, 4.15625, 4.3125, 4.1875, 4.21875, 4.0, 4.25, 4.25, 4.15625, 4.0, 4.21875, 4.21875, 3.96875, 4.25, 4.375, 4.1875, 4.1875, 4.03125, 4.03125, 4.3125, 3.984375, 4.0, 4.09375, 3.90625, 4.0625, 4.09375, 4.09375, 4.0625, 3.875, 4.0625, 4.03125, 3.984375, 4.25, 3.9375, 3.9375, 3.9375, 3.9375, 3.8125, 4.09375, 3.859375, 3.96875, 3.875, 3.796875, 3.875, 3.921875, 3.921875, 3.765625, 4.03125, 3.84375, 3.890625, 3.875, 4.03125, 3.90625, 3.71875, 4.0625, 3.921875, 3.859375, 3.640625, 3.765625, 3.765625, 4.03125, 3.84375, 3.765625, 3.875, 3.703125, 3.625, 3.796875, 3.890625, 3.671875, 3.734375, 3.953125, 3.953125, 3.796875, 3.78125, 3.890625, 3.84375, 3.796875, 3.734375, 3.65625, 3.828125, 3.65625, 3.703125, 3.703125, 3.890625, 3.828125, 3.703125, 3.671875, 3.828125, 3.796875, 3.765625, 3.78125, 3.625, 3.890625, 3.765625, 3.78125, 3.765625, 3.8125, 3.609375, 3.734375, 3.765625, 3.703125, 3.53125, 3.78125, 3.734375, 3.6875, 3.671875, 3.78125, 3.71875, 3.609375, 3.546875, 3.84375, 3.59375, 3.546875, 3.53125, 3.578125, 3.65625, 3.5625, 3.640625, 3.53125, 3.671875, 3.796875, 3.515625, 3.453125, 3.84375, 3.734375, 3.6875, 3.578125, 3.625, 3.53125, 3.671875, 3.640625, 3.609375, 3.71875, 3.625, 3.609375, 3.5625, 3.34375, 3.5, 3.5625, 3.5, 3.734375, 3.5625, 3.671875, 3.515625, 3.484375, 3.65625, 3.703125, 3.4375, 3.484375, 3.484375, 3.484375, 3.46875, 3.59375, 3.6875, 3.625, 3.65625, 3.4375, 3.46875, 3.59375, 3.5, 3.625, 3.390625, 3.484375, 3.515625, 3.640625, 3.484375, 3.6875, 3.53125, 3.453125, 3.5, 3.5, 3.546875, 3.390625, 3.390625, 3.5, 3.5625, 3.59375, 3.40625, 3.484375, 3.5625, 3.6875, 3.46875, 3.515625, 3.40625, 3.65625, 3.46875, 3.390625, 3.484375, 3.578125, 3.40625, 3.53125, 3.515625, 3.4375, 3.453125, 3.484375, 3.453125, 3.515625, 3.4375, 3.34375, 3.53125, 3.46875, 3.359375, 3.5, 3.40625, 3.609375, 3.578125, 3.265625, 3.484375, 3.453125, 3.4375, 3.640625, 3.625, 3.53125, 3.375, 3.28125, 3.421875, 3.328125, 3.546875, 3.359375, 3.4375, 3.40625, 3.40625, 3.390625, 3.5625, 3.46875, 3.359375, 3.328125, 3.53125, 3.453125, 3.421875, 3.46875, 3.40625, 3.484375, 3.328125, 3.3125, 3.40625, 3.46875, 3.375, 3.578125, 3.40625, 3.4375, 3.375, 3.453125, 3.453125, 3.46875, 3.125, 3.421875, 3.625, 3.703125, 3.515625, 3.375, 3.28125, 3.296875, 3.4375, 3.34375, 3.28125, 3.46875, 3.40625, 3.421875, 3.34375, 3.34375, 3.328125, 3.375, 3.4375, 3.171875, 3.53125, 3.3125, 3.234375, 3.671875, 3.390625, 3.21875, 3.40625, 3.53125, 3.375, 3.453125, 3.3125, 3.625, 3.109375, 3.359375, 3.484375, 3.390625, 3.40625, 3.421875, 3.171875, 3.078125, 3.515625, 3.3125, 3.296875, 3.25, 3.390625, 3.390625, 3.265625, 3.390625, 3.203125, 3.390625, 3.375, 3.15625, 3.359375, 3.359375, 3.28125, 3.25, 3.328125, 3.328125, 3.25, 3.21875, 3.234375, 3.3125, 3.21875, 3.28125, 3.25, 3.328125, 3.40625, 3.28125, 3.0625, 3.40625, 3.34375, 3.28125, 3.453125, 3.421875, 3.21875, 3.296875, 3.28125, 3.421875, 3.390625, 3.25, 3.359375, 3.203125, 3.21875, 3.25, 3.359375, 3.359375, 3.4375, 3.328125, 3.1875, 3.28125, 3.234375, 3.546875, 3.265625, 3.25, 3.40625, 3.3125, 3.46875, 3.171875, 3.28125, 3.203125, 3.21875, 3.1875, 3.34375, 3.28125, 3.203125, 3.21875, 3.3125, 3.3125, 3.296875, 3.203125, 3.46875, 3.28125, 3.171875, 3.421875, 3.34375, 2.984375, 3.40625, 3.15625, 3.40625, 3.421875, 3.171875, 3.3125, 3.109375, 3.234375, 3.234375, 3.15625, 3.328125, 3.40625, 3.15625, 3.21875, 3.21875, 3.15625, 3.328125, 3.21875, 3.5, 3.265625, 3.4375, 3.328125, 2.953125, 3.203125, 3.296875, 3.171875, 2.875, 3.296875, 3.15625, 3.3125, 3.265625, 3.21875, 3.53125, 3.1875, 3.109375, 2.96875, 3.1875, 3.109375, 3.21875, 3.015625, 3.234375, 3.109375, 3.1875, 3.328125, 2.84375, 3.3125, 3.25, 3.140625, 3.09375, 3.234375, 3.140625, 3.25, 3.265625, 3.203125, 3.234375, 3.28125, 3.265625, 3.3125, 3.234375, 3.34375, 3.375, 3.40625, 3.140625, 3.1875, 3.296875, 3.109375, 3.234375, 3.1875, 3.203125, 3.125, 3.125, 3.359375, 3.375, 3.015625, 3.171875, 3.140625, 3.09375, 3.34375, 3.125, 3.171875, 3.109375, 3.25, 3.140625, 3.203125, 3.09375, 3.453125, 3.125, 3.25, 2.96875, 3.1875, 3.09375, 2.984375, 3.234375, 3.28125, 3.09375, 3.171875, 3.1875, 3.4375, 3.234375, 3.234375, 3.171875, 3.265625, 3.296875, 3.09375, 3.171875, 3.15625, 3.1875, 3.125, 3.078125, 3.328125, 3.28125, 3.296875, 3.390625, 3.265625, 3.234375, 2.96875, 3.25, 3.15625, 3.171875, 3.109375, 3.234375, 3.109375, 3.234375, 3.0625, 3.203125, 3.234375, 3.109375, 3.015625, 3.1875, 3.15625, 3.046875, 3.140625, 2.96875, 3.25, 3.125, 3.265625, 3.171875, 3.125, 3.390625, 3.0, 3.140625, 3.109375, 3.171875, 3.28125, 3.15625, 3.28125, 2.921875, 3.15625, 3.328125, 3.0625, 3.03125, 3.15625, 3.0625, 3.203125, 3.109375, 2.953125, 3.15625, 3.078125, 3.171875, 3.0, 3.203125, 2.96875, 3.140625, 3.234375, 3.1875, 2.984375, 3.125, 2.9375, 3.234375, 3.140625, 3.296875, 3.203125, 3.125, 3.1875, 3.203125, 3.109375, 3.171875, 2.921875, 3.359375, 3.125, 3.25, 3.015625, 3.109375, 3.421875, 3.203125, 3.265625, 3.265625, 3.125, 3.1875, 3.171875, 3.140625, 3.34375, 3.203125, 3.140625, 3.125, 3.0, 3.25, 3.1875, 3.234375, 3.171875, 3.0625, 3.03125, 3.203125, 3.296875, 3.28125, 2.921875, 3.171875, 3.046875, 3.109375, 3.25, 3.265625, 3.140625, 3.0, 3.109375, 3.0625, 3.109375, 3.09375, 3.171875, 3.125, 2.96875, 3.1875, 3.171875, 3.234375, 3.296875, 2.875, 3.078125, 3.09375, 3.15625, 3.15625, 2.953125, 2.9375, 3.09375, 3.265625, 3.03125, 3.171875, 3.140625, 3.125, 3.078125, 3.015625, 3.125, 2.90625, 3.015625, 3.265625, 3.03125, 3.234375, 3.109375, 3.046875, 3.0625, 3.125, 3.0, 3.078125, 3.1875, 3.109375, 3.265625, 3.203125, 3.328125, 3.21875, 3.09375, 3.125, 3.078125, 3.125, 3.0, 3.0, 3.25, 3.171875, 3.109375, 3.15625, 3.25, 3.125, 3.21875, 3.125, 3.0625, 3.125, 3.234375, 3.0625, 3.09375, 2.859375, 3.140625, 3.15625, 3.125, 3.234375, 3.15625, 3.21875, 2.828125, 3.09375, 3.203125, 2.953125, 3.3125, 3.0, 3.09375, 3.1875, 3.171875, 3.15625, 2.859375, 3.140625, 3.109375, 3.015625, 2.9375, 3.046875, 3.046875, 2.921875, 3.265625, 2.984375, 3.0, 3.0, 3.078125, 3.25, 3.0625, 3.125, 3.015625, 3.15625, 3.109375, 3.0625, 3.125, 3.21875, 3.015625, 3.015625, 3.078125, 2.921875, 3.171875, 3.046875, 3.0625, 2.890625, 3.140625, 3.1875, 2.984375, 3.0, 3.03125, 3.046875, 3.015625, 3.296875, 3.328125, 3.046875, 3.03125, 2.96875, 3.25, 3.140625, 3.21875, 3.046875, 3.09375, 3.265625, 3.0625, 3.15625, 3.140625, 3.234375, 3.0625, 3.140625, 3.109375, 2.90625, 3.0, 3.1875, 3.015625, 3.109375, 3.1875, 3.0, 3.078125, 2.890625, 2.953125, 3.15625, 2.96875, 3.21875, 3.078125, 2.953125, 3.109375, 3.171875, 2.84375, 3.046875, 3.171875, 3.046875, 3.140625, 3.171875, 3.03125, 2.984375, 3.1875, 3.109375, 3.140625, 3.1875, 2.9375, 3.015625, 2.921875, 3.25, 2.96875, 2.984375, 2.875, 2.953125, 3.265625, 3.046875, 3.03125, 3.171875, 3.21875, 2.8125, 2.96875, 3.09375, 2.96875, 3.0625, 3.03125, 3.15625, 3.296875, 3.171875, 2.953125, 2.921875, 3.09375, 3.0, 3.03125, 2.9375, 2.875, 3.140625, 3.0625, 3.078125, 3.1875, 3.109375, 2.984375, 2.96875, 3.15625, 2.953125, 3.0625, 2.96875, 3.25, 2.875, 3.125, 3.0625, 3.140625, 3.078125, 2.953125, 2.953125, 3.171875, 3.125, 2.96875, 3.046875, 2.953125, 3.28125, 3.125, 2.78125, 3.140625, 3.15625, 3.15625, 3.1875, 3.015625, 3.171875, 3.015625, 2.921875, 3.03125, 2.890625, 3.015625, 3.109375, 3.109375, 2.796875, 3.03125, 2.859375, 3.0625, 3.015625, 3.015625, 3.03125, 3.0, 2.984375, 3.21875, 3.171875, 3.03125, 2.890625, 2.90625, 3.078125, 2.96875, 3.0625, 3.109375, 2.96875, 3.03125, 2.9375, 3.0625, 2.9375, 3.109375, 2.953125, 2.96875, 2.859375, 3.09375, 3.078125, 2.96875, 2.796875, 2.953125, 2.90625, 2.9375, 3.03125, 3.0625, 2.984375, 2.9375, 2.953125, 3.09375, 2.859375, 2.90625, 2.921875, 3.03125, 3.078125, 2.953125, 2.953125, 3.03125, 2.875, 2.828125, 3.171875, 3.0625, 3.046875, 3.03125, 3.03125, 2.84375, 3.078125, 3.140625, 3.125, 2.921875, 3.03125, 2.828125, 3.0625, 3.046875, 3.109375, 2.9375, 2.78125, 2.90625, 3.0625, 3.0625, 3.15625, 2.859375, 2.90625, 3.078125, 2.953125, 2.875, 2.71875, 3.09375, 3.03125, 2.90625, 2.96875, 2.96875, 3.0, 3.03125, 2.921875, 2.953125, 2.890625, 3.109375, 2.9375, 3.109375, 2.921875, 2.90625, 2.90625, 2.84375, 2.84375, 2.953125, 2.953125, 2.828125, 2.96875, 3.125, 2.859375, 2.984375, 3.078125, 2.953125, 3.0, 3.03125, 2.921875, 2.8125, 2.875, 2.984375, 3.125, 2.96875, 2.921875, 2.96875, 2.921875, 3.078125, 3.0625, 3.015625, 3.171875, 3.03125, 3.03125, 2.90625, 3.046875, 3.015625, 3.09375, 3.046875, 3.046875, 3.03125, 3.03125, 3.078125, 2.875, 2.90625, 3.140625, 3.03125, 2.921875, 2.9375, 2.984375, 3.03125, 2.75, 2.96875, 2.828125, 3.03125, 3.0, 3.203125, 3.109375, 2.9375, 3.171875, 2.890625, 3.109375, 3.0, 2.921875, 2.875, 2.921875, 3.03125, 3.109375, 2.984375, 2.8125, 3.0, 2.875, 3.046875, 2.9375, 3.046875, 2.953125, 2.96875, 2.90625, 2.9375, 2.921875, 2.90625, 2.96875, 3.09375, 2.984375, 3.03125, 2.96875, 3.0, 2.9375, 2.9375, 3.125, 2.828125, 2.96875, 2.78125, 2.984375, 3.125, 2.875, 2.96875, 2.84375, 3.0625, 3.03125, 2.953125, 3.03125, 3.0625, 2.9375, 3.0, 3.03125, 3.0625, 2.9375, 3.0625, 2.890625, 2.953125, 3.046875, 3.0625, 2.9375, 2.953125, 2.90625, 2.96875, 2.921875, 2.984375, 3.0, 2.828125, 2.875, 3.015625, 2.984375, 3.046875, 3.046875, 2.96875, 3.03125, 2.9375, 3.171875, 3.0625, 2.921875, 2.890625, 2.96875, 2.859375, 3.09375, 2.96875, 3.046875, 2.84375, 2.875, 3.140625, 2.90625, 3.03125, 2.71875, 2.796875, 2.96875, 2.84375, 3.046875, 2.90625, 2.90625, 2.984375, 3.0, 2.90625, 3.046875, 2.953125, 2.640625, 3.0, 2.90625, 3.015625, 3.0625, 3.171875, 2.96875, 3.046875, 2.796875, 2.8125, 2.921875, 2.84375, 2.875, 2.859375, 2.9375, 2.859375, 2.984375, 3.0, 3.203125, 3.03125, 3.046875, 3.0625, 3.015625, 3.09375, 2.921875, 3.0, 3.015625, 2.9375, 2.890625, 3.0, 3.046875, 2.875, 2.984375, 3.140625, 2.859375, 2.953125, 2.90625, 2.859375, 2.96875, 2.828125, 3.03125, 2.8125, 2.875, 2.890625, 2.8125, 2.890625, 3.0, 2.71875, 3.0, 2.953125, 2.984375, 2.828125, 2.8125, 2.78125, 2.90625, 3.0, 2.875, 3.0, 3.109375, 2.984375, 3.109375, 2.9375, 2.96875, 2.90625, 2.84375, 2.921875, 2.8125, 3.078125, 3.015625, 2.9375, 2.875, 2.9375, 3.078125, 3.015625, 3.015625, 2.84375, 2.84375, 2.796875, 3.015625, 3.0, 2.796875, 2.796875, 2.921875, 2.921875, 2.953125, 2.8125, 2.875, 2.75, 2.796875, 2.921875, 3.0, 3.09375, 3.0, 3.109375, 2.84375, 3.078125, 3.015625, 3.03125, 2.953125, 2.796875, 2.875, 2.765625, 3.078125, 3.046875, 2.78125, 2.984375, 2.859375, 2.859375, 3.015625, 2.953125, 2.984375, 2.984375, 2.875, 2.828125, 2.78125, 2.828125, 2.90625, 2.53125, 2.65625, 2.875, 2.90625, 2.96875, 2.84375, 2.890625, 2.96875, 2.953125, 3.0, 2.984375, 2.71875, 2.890625, 2.828125, 3.03125, 2.75, 2.953125, 2.984375, 2.921875, 3.046875, 3.0625, 2.953125, 2.890625, 3.03125, 2.84375, 2.953125, 2.96875, 2.890625, 2.9375, 2.984375, 2.9375, 3.15625, 2.765625, 2.84375, 2.921875, 2.796875, 2.875, 2.859375, 2.765625, 3.125, 2.9375, 2.984375, 3.046875, 2.828125, 3.109375, 2.84375, 2.9375, 2.8125, 3.125, 2.84375, 3.15625, 2.9375, 2.828125, 2.5625, 2.859375, 3.078125, 2.859375, 2.796875, 3.078125, 3.09375, 2.890625, 2.890625, 2.75, 3.015625, 2.96875, 2.84375, 2.828125, 3.015625, 2.96875, 2.9375, 2.875, 2.859375, 2.828125, 2.921875, 2.65625, 2.921875, 2.875, 2.734375, 2.875, 2.96875, 2.765625, 2.921875, 2.59375, 2.96875, 3.046875, 2.953125, 2.953125, 3.140625, 2.890625, 2.953125, 2.734375, 2.71875, 3.0, 2.84375, 2.953125, 2.875, 2.4375, 2.6875, 2.796875, 2.90625, 3.0, 2.9375, 2.9375, 2.75, 2.921875, 2.734375, 2.90625, 2.875, 2.84375, 2.890625, 2.765625, 2.921875, 2.671875, 3.015625, 2.53125, 2.828125, 2.8125, 3.015625, 2.90625, 2.78125, 2.921875, 3.078125, 2.890625, 2.65625, 2.90625, 2.8125, 2.84375, 2.796875, 2.671875, 2.75, 3.09375, 2.75, 3.203125, 2.90625, 2.9375, 2.984375, 2.734375, 2.828125, 3.015625, 2.6875, 2.84375, 2.875, 2.9375, 3.0625, 2.796875, 2.78125, 2.921875, 2.96875, 2.921875, 2.953125, 2.921875, 2.921875, 3.140625, 2.78125, 3.0, 2.84375, 2.90625, 2.953125, 2.890625, 2.78125, 2.671875, 2.828125, 3.0, 2.859375, 2.953125, 2.828125, 2.703125, 2.90625, 2.75, 2.875, 2.59375, 2.765625, 2.796875, 2.921875, 2.796875, 2.6875, 2.84375, 2.84375, 2.890625, 2.9375, 2.8125, 2.921875, 2.90625, 2.8125, 2.78125, 2.859375, 2.78125, 2.890625, 2.796875, 2.984375, 2.734375, 2.9375, 2.90625, 2.84375, 2.828125, 2.90625, 3.0625, 2.671875, 2.8125, 3.03125, 3.09375, 2.953125, 2.9375, 2.90625, 2.5, 2.765625, 2.75, 2.90625, 2.671875, 3.0, 2.828125, 3.0625, 2.84375, 2.640625, 2.8125, 2.9375, 3.015625, 2.734375, 2.8125, 2.859375, 2.84375, 2.90625, 2.828125, 2.90625, 2.921875, 2.953125, 2.78125, 2.75, 2.96875, 2.671875, 2.90625, 2.671875, 2.921875, 2.890625, 2.921875, 2.65625, 2.921875, 2.734375, 2.765625, 3.03125, 2.875, 2.78125, 2.890625, 3.09375, 2.90625, 2.78125, 2.78125, 2.921875, 2.84375, 2.765625, 2.75, 2.875, 2.984375, 2.84375, 2.875, 2.75, 2.828125, 2.65625, 2.859375, 2.71875, 2.984375, 3.015625, 2.515625, 2.96875, 2.6875, 2.734375, 2.90625, 2.8125, 3.015625, 3.015625, 2.96875, 2.890625, 2.609375, 2.8125, 2.953125, 2.921875, 2.921875, 2.796875, 2.921875, 2.640625, 2.84375, 2.78125, 2.875, 2.796875, 2.703125, 2.890625, 2.984375, 2.859375, 2.796875, 2.734375, 2.890625, 2.9375, 2.78125, 2.890625, 2.859375, 2.78125, 2.734375, 2.828125, 2.875, 2.875, 2.796875, 2.890625, 2.828125, 2.75, 2.765625, 2.890625, 2.859375, 2.78125, 2.859375, 2.703125, 2.734375, 2.671875, 2.734375, 2.828125, 2.734375, 2.9375, 2.796875, 2.90625, 2.8125, 2.859375, 2.90625, 2.78125, 2.84375, 2.859375, 2.796875, 2.953125, 2.890625, 3.109375, 2.84375, 2.953125, 2.671875, 2.859375, 2.9375, 2.8125, 2.8125, 2.96875, 2.859375, 2.84375, 2.90625, 2.796875, 2.765625, 2.671875, 2.90625, 2.953125, 2.96875, 2.953125, 2.78125, 2.8125, 2.71875, 2.703125, 2.71875, 2.796875, 2.90625, 2.65625, 3.09375, 2.875, 2.765625, 2.625, 2.765625, 2.734375, 2.890625, 2.59375, 2.75, 2.921875, 2.703125, 2.828125, 3.015625, 2.875, 3.015625, 2.703125, 2.890625, 2.8125, 2.828125, 2.90625, 2.84375, 2.828125, 2.875, 2.84375, 2.90625, 2.90625, 2.84375, 2.6875, 2.859375, 2.84375, 3.21875, 2.75, 2.75, 2.75, 2.875, 2.90625, 2.921875, 3.046875, 2.734375, 2.9375, 2.84375, 2.765625, 2.796875, 2.828125, 2.78125, 2.9375, 2.8125, 2.8125, 2.859375, 2.890625, 2.6875, 2.9375, 2.78125, 2.796875, 2.875, 2.765625, 2.75, 3.0, 2.796875, 2.71875, 2.953125, 2.875, 2.78125, 2.671875, 2.96875, 2.9375, 2.78125, 2.859375, 2.90625, 2.734375, 2.84375, 2.703125, 2.71875, 3.03125, 2.703125, 2.78125, 2.859375, 2.84375, 2.78125, 2.578125, 2.890625, 3.046875, 2.890625, 2.71875, 2.546875, 2.8125, 2.953125, 2.828125, 2.84375, 2.6875, 2.796875, 2.90625, 2.71875, 2.859375, 2.9375, 2.921875, 2.78125, 2.78125, 2.75, 2.625, 2.875, 2.875, 2.65625, 2.96875, 2.859375, 2.828125, 2.859375, 2.65625, 2.875, 2.8125, 2.75, 2.796875, 2.78125, 2.8125, 2.875, 2.65625, 2.640625, 2.765625, 2.765625, 2.75, 3.03125, 2.84375, 2.671875, 2.9375, 2.734375, 2.953125, 2.921875, 2.78125, 2.796875, 2.828125, 2.46875, 2.8125, 2.671875, 2.8125, 2.765625, 2.875, 2.71875, 2.71875, 2.78125, 2.921875, 2.734375, 2.890625, 2.59375, 2.703125, 2.921875, 2.75, 2.796875, 2.71875, 2.671875, 2.765625, 2.59375, 2.84375, 2.765625, 2.765625, 2.78125, 2.71875, 2.890625, 2.75, 2.75, 2.828125, 2.8125, 2.734375, 2.890625, 2.765625, 2.765625, 2.90625, 2.765625, 2.890625, 2.734375, 2.859375, 2.828125, 2.96875, 2.8125, 2.75, 2.859375, 2.96875, 2.828125, 2.46875, 2.796875, 2.765625, 2.75, 2.859375, 2.921875, 2.84375, 2.78125, 2.828125, 2.734375, 2.640625, 2.84375, 2.828125, 2.84375, 2.75, 2.96875, 2.875, 2.734375, 2.859375, 2.859375, 2.953125, 2.625, 2.8125, 2.828125, 2.734375, 2.734375, 2.65625, 2.828125, 2.71875, 2.859375, 2.65625, 2.890625, 2.875, 2.6875, 2.65625, 2.765625, 2.90625, 2.84375, 2.84375, 2.8125, 2.65625, 2.78125, 2.765625, 2.859375, 2.78125, 2.859375, 2.84375, 2.84375, 2.828125, 2.53125, 2.921875, 2.5625, 2.8125, 2.796875, 2.5625, 2.6875, 2.75, 2.78125, 2.859375, 2.84375, 2.6875, 2.765625, 2.9375, 2.9375, 2.65625, 2.84375, 2.703125, 2.671875, 2.78125, 2.828125, 2.8125, 2.640625, 2.6875, 2.921875, 2.71875, 2.890625, 2.84375, 2.875, 2.75, 2.875, 2.890625, 2.8125, 2.84375, 2.6875, 2.71875, 2.8125, 2.796875, 2.8125, 2.75, 2.84375, 2.71875, 2.78125, 2.90625, 2.765625, 2.578125, 2.8125, 2.734375, 2.78125, 2.9375, 2.671875, 2.71875, 2.859375, 2.796875, 2.78125, 2.671875, 2.78125, 2.84375, 2.90625, 2.84375, 2.8125, 2.65625, 2.671875, 2.859375, 2.921875, 2.84375, 2.875, 2.71875, 2.671875, 2.8125, 2.765625, 2.671875, 2.828125, 2.828125, 2.8125, 2.890625, 2.734375, 2.640625, 2.796875, 3.0625, 2.8125, 2.671875, 2.796875, 2.875, 2.609375, 2.828125, 2.78125, 2.75, 2.78125, 2.921875, 3.109375, 2.71875, 2.78125, 2.75, 2.8125, 2.765625, 2.78125, 2.703125, 2.78125, 2.703125, 3.046875, 2.609375, 2.90625, 2.890625, 2.671875, 2.703125, 2.890625, 2.796875, 2.75, 2.734375, 2.78125, 2.828125, 2.59375, 3.0625, 2.6875, 2.765625, 2.734375, 2.671875, 2.875, 2.8125, 2.78125, 2.703125, 2.75, 2.953125, 2.8125, 2.828125, 2.796875, 2.796875, 2.84375, 2.703125, 2.90625, 2.90625, 2.6875, 2.671875, 2.859375, 2.578125, 2.890625, 2.75, 2.765625, 2.703125, 2.71875, 2.828125, 2.78125, 2.859375, 2.609375, 2.703125, 2.875, 2.71875, 2.84375, 2.75, 2.796875, 2.765625, 2.6875, 2.90625, 2.640625, 2.8125, 2.859375, 2.671875, 2.84375, 2.8125, 2.796875, 2.734375, 2.734375, 2.703125, 2.640625, 2.875, 2.84375, 2.859375, 2.796875, 2.859375, 2.703125, 2.65625, 2.59375, 2.96875, 2.90625, 2.78125, 2.796875, 2.71875, 2.8125, 2.75, 2.484375, 2.640625, 2.859375, 2.75, 2.71875, 2.703125, 3.078125, 2.828125, 2.640625, 2.671875, 2.609375, 2.625, 2.875, 2.84375, 3.03125, 2.734375, 2.78125, 2.71875, 2.703125, 2.9375, 2.5625, 2.765625, 2.921875, 2.78125, 2.609375, 2.609375, 2.8125, 2.75, 2.5625, 2.8125, 2.65625, 2.6875, 2.796875, 2.75, 2.625, 2.703125, 2.78125, 3.015625, 2.640625, 2.640625, 2.765625, 2.59375, 2.71875, 2.65625, 2.78125, 2.703125, 2.546875, 2.703125, 2.875, 3.015625, 2.765625, 2.71875, 2.609375, 2.828125, 2.96875, 2.890625, 2.640625, 2.65625, 2.578125, 2.8125, 2.734375, 2.59375, 2.765625, 2.6875, 2.6875, 2.734375, 2.875, 2.484375, 2.765625, 2.921875, 2.90625, 2.671875, 2.953125, 2.765625, 2.71875, 2.875, 2.546875, 2.859375, 2.6875, 2.640625, 2.828125, 2.65625, 2.65625, 2.671875, 2.796875, 2.671875, 2.8125, 2.796875, 2.828125, 2.65625, 2.75, 2.796875, 2.765625, 2.84375, 2.625, 2.84375, 2.671875, 2.734375, 2.609375, 2.8125, 2.640625, 2.59375, 2.78125, 2.5625, 2.734375, 2.96875, 2.890625, 2.59375, 2.796875, 2.921875, 2.765625, 2.59375, 2.8125, 2.71875, 2.765625, 2.875, 2.953125, 2.5625, 2.65625, 2.734375, 2.65625, 2.796875, 2.578125, 2.765625, 2.859375, 2.96875, 2.75, 2.765625, 2.765625, 2.71875, 2.78125, 2.859375, 2.8125, 2.625, 2.703125, 2.5, 2.6875, 2.5625, 2.75, 2.875, 2.84375, 2.8125, 2.71875, 2.75, 2.796875, 2.703125, 2.578125, 2.921875, 2.859375, 2.71875, 2.515625, 2.8125, 2.765625, 2.875, 2.75, 2.953125, 2.609375, 2.875, 2.65625, 2.828125, 2.640625, 2.796875, 2.78125, 2.59375, 2.5625, 2.65625, 2.703125, 2.6875, 2.5, 2.75, 2.765625, 2.890625, 2.671875, 2.859375, 2.703125, 2.5625, 2.625, 2.703125, 2.640625, 2.5625, 2.640625, 2.46875, 2.515625, 2.625, 2.484375, 2.796875, 2.53125, 2.71875, 2.578125, 2.828125]","[56320.0, 1864.0, 1408.0, 1032.0, 884.0, 732.0, 608.0, 708.0, 502.0, 392.0, 334.0, 346.0, 356.0, 296.0, 380.0, 392.0, 304.0, 324.0, 380.0, 278.0, 416.0, 270.0, 278.0, 260.0, 260.0, 324.0, 253.0, 223.0, 209.0, 230.0, 230.0, 197.0, 209.0, 203.0, 179.0, 245.0, 197.0, 185.0, 245.0, 185.0, 237.0, 237.0, 209.0, 153.0, 163.0, 230.0, 185.0, 185.0, 179.0, 191.0, 163.0, 144.0, 191.0, 158.0, 131.0, 203.0, 168.0, 163.0, 168.0, 153.0, 144.0, 149.0, 163.0, 168.0, 127.0, 131.0, 149.0, 112.0, 112.0, 112.0, 119.5, 115.5, 158.0, 123.0, 115.5, 135.0, 99.0, 115.5, 96.0, 105.5, 119.5, 84.5, 99.0, 102.0, 108.5, 119.5, 102.0, 96.0, 82.0, 87.5, 82.0, 108.5, 93.0, 82.0, 82.0, 93.0, 108.5, 115.5, 77.0, 84.5, 93.0, 93.0, 66.0, 66.0, 77.0, 82.0, 58.25, 77.0, 82.0, 68.0, 79.5, 74.5, 77.0, 77.0, 74.5, 60.0, 62.0, 72.5, 74.5, 66.0, 74.5, 64.0, 74.5, 66.0, 68.0, 54.75, 70.0, 70.0, 64.0, 54.75, 68.0, 68.0, 53.0, 70.0, 79.5, 66.0, 66.0, 56.25, 56.25, 74.5, 53.75, 54.75, 60.0, 49.75, 58.25, 60.0, 60.0, 58.25, 48.25, 58.25, 56.25, 53.75, 70.0, 51.25, 51.25, 51.25, 51.25, 45.25, 60.0, 47.5, 53.0, 48.25, 44.5, 48.25, 50.5, 50.5, 43.25, 56.25, 46.75, 49.0, 48.25, 56.25, 49.75, 41.25, 58.25, 50.5, 47.5, 38.25, 43.25, 43.25, 56.25, 46.75, 43.25, 48.25, 40.5, 37.5, 44.5, 49.0, 39.25, 42.0, 52.25, 52.25, 44.5, 44.0, 49.0, 46.75, 44.5, 42.0, 38.75, 46.0, 38.75, 40.5, 40.5, 49.0, 46.0, 40.5, 39.25, 46.0, 44.5, 43.25, 44.0, 37.5, 49.0, 43.25, 44.0, 43.25, 45.25, 37.0, 42.0, 43.25, 40.5, 34.25, 44.0, 42.0, 40.0, 39.25, 44.0, 41.25, 37.0, 34.75, 46.75, 36.5, 34.75, 34.25, 35.75, 38.75, 35.25, 38.25, 34.25, 39.25, 44.5, 33.75, 31.625, 46.75, 42.0, 40.0, 35.75, 37.5, 34.25, 39.25, 38.25, 37.0, 41.25, 37.5, 37.0, 35.25, 28.375, 33.25, 35.25, 33.25, 42.0, 35.25, 39.25, 33.75, 32.5, 38.75, 40.5, 31.125, 32.5, 32.5, 32.5, 32.0, 36.5, 40.0, 37.5, 38.75, 31.125, 32.0, 36.5, 33.25, 37.5, 29.75, 32.5, 33.75, 38.25, 32.5, 40.0, 34.25, 31.625, 33.25, 33.25, 34.75, 29.75, 29.75, 33.25, 35.25, 36.5, 30.125, 32.5, 35.25, 40.0, 32.0, 33.75, 30.125, 38.75, 32.0, 29.75, 32.5, 35.75, 30.125, 34.25, 33.75, 31.125, 31.625, 32.5, 31.625, 33.75, 31.125, 28.375, 34.25, 32.0, 28.75, 33.25, 30.125, 37.0, 35.75, 26.25, 32.5, 31.625, 31.125, 38.25, 37.5, 34.25, 29.25, 26.625, 30.625, 27.875, 34.75, 28.75, 31.125, 30.125, 30.125, 29.75, 35.25, 32.0, 28.75, 27.875, 34.25, 31.625, 30.625, 32.0, 30.125, 32.5, 27.875, 27.5, 30.125, 32.0, 29.25, 35.75, 30.125, 31.125, 29.25, 31.625, 31.625, 32.0, 22.75, 30.625, 37.5, 40.5, 33.75, 29.25, 26.625, 27.0, 31.125, 28.375, 26.625, 32.0, 30.125, 30.625, 28.375, 28.375, 27.875, 29.25, 31.125, 23.875, 34.25, 27.5, 25.375, 39.25, 29.75, 25.0, 30.125, 34.25, 29.25, 31.625, 27.5, 37.5, 22.375, 28.75, 32.5, 29.75, 30.125, 30.625, 23.875, 21.75, 33.75, 27.5, 27.0, 25.75, 29.75, 29.75, 26.25, 29.75, 24.625, 29.75, 29.25, 23.5, 28.75, 28.75, 26.625, 25.75, 27.875, 27.875, 25.75, 25.0, 25.375, 27.5, 25.0, 26.625, 25.75, 27.875, 30.125, 26.625, 21.375, 30.125, 28.375, 26.625, 31.625, 30.625, 25.0, 27.0, 26.625, 30.625, 29.75, 25.75, 28.75, 24.625, 25.0, 25.75, 28.75, 28.75, 31.125, 27.875, 24.25, 26.625, 25.375, 34.75, 26.25, 25.75, 30.125, 27.5, 32.0, 23.875, 26.625, 24.625, 25.0, 24.25, 28.375, 26.625, 24.625, 25.0, 27.5, 27.5, 27.0, 24.625, 32.0, 26.625, 23.875, 30.625, 28.375, 19.75, 30.125, 23.5, 30.125, 30.625, 23.875, 27.5, 22.375, 25.375, 25.375, 23.5, 27.875, 30.125, 23.5, 25.0, 25.0, 23.5, 27.875, 25.0, 33.25, 26.25, 31.125, 27.875, 19.125, 24.625, 27.0, 23.875, 17.75, 27.0, 23.5, 27.5, 26.25, 25.0, 34.25, 24.25, 22.375, 19.5, 24.25, 22.375, 25.0, 20.375, 25.375, 22.375, 24.25, 27.875, 17.25, 27.5, 25.75, 23.125, 22.125, 25.375, 23.125, 25.75, 26.25, 24.625, 25.375, 26.625, 26.25, 27.5, 25.375, 28.375, 29.25, 30.125, 23.125, 24.25, 27.0, 22.375, 25.375, 24.25, 24.625, 22.75, 22.75, 28.75, 29.25, 20.375, 23.875, 23.125, 22.125, 28.375, 22.75, 23.875, 22.375, 25.75, 23.125, 24.625, 22.125, 31.625, 22.75, 25.75, 19.5, 24.25, 22.125, 19.75, 25.375, 26.625, 22.125, 23.875, 24.25, 31.125, 25.375, 25.375, 23.875, 26.25, 27.0, 22.125, 23.875, 23.5, 24.25, 22.75, 21.75, 27.875, 26.625, 27.0, 29.75, 26.25, 25.375, 19.5, 25.75, 23.5, 23.875, 22.375, 25.375, 22.375, 25.375, 21.375, 24.625, 25.375, 22.375, 20.375, 24.25, 23.5, 21.0, 23.125, 19.5, 25.75, 22.75, 26.25, 23.875, 22.75, 29.75, 20.125, 23.125, 22.375, 23.875, 26.625, 23.5, 26.625, 18.625, 23.5, 27.875, 21.375, 20.75, 23.5, 21.375, 24.625, 22.375, 19.125, 23.5, 21.75, 23.875, 20.125, 24.625, 19.5, 23.125, 25.375, 24.25, 19.75, 22.75, 18.875, 25.375, 23.125, 27.0, 24.625, 22.75, 24.25, 24.625, 22.375, 23.875, 18.625, 28.75, 22.75, 25.75, 20.375, 22.375, 30.625, 24.625, 26.25, 26.25, 22.75, 24.25, 23.875, 23.125, 28.375, 24.625, 23.125, 22.75, 20.125, 25.75, 24.25, 25.375, 23.875, 21.375, 20.75, 24.625, 27.0, 26.625, 18.625, 23.875, 21.0, 22.375, 25.75, 26.25, 23.125, 20.125, 22.375, 21.375, 22.375, 22.125, 23.875, 22.75, 19.5, 24.25, 23.875, 25.375, 27.0, 17.75, 21.75, 22.125, 23.5, 23.5, 19.125, 18.875, 22.125, 26.25, 20.75, 23.875, 23.125, 22.75, 21.75, 20.375, 22.75, 18.25, 20.375, 26.25, 20.75, 25.375, 22.375, 21.0, 21.375, 22.75, 20.125, 21.75, 24.25, 22.375, 26.25, 24.625, 27.875, 25.0, 22.125, 22.75, 21.75, 22.75, 20.125, 20.125, 25.75, 23.875, 22.375, 23.5, 25.75, 22.75, 25.0, 22.75, 21.375, 22.75, 25.375, 21.375, 22.125, 17.5, 23.125, 23.5, 22.75, 25.375, 23.5, 25.0, 16.875, 22.125, 24.625, 19.125, 27.5, 20.125, 22.125, 24.25, 23.875, 23.5, 17.5, 23.125, 22.375, 20.375, 18.875, 21.0, 21.0, 18.625, 26.25, 19.75, 20.125, 20.125, 21.75, 25.75, 21.375, 22.75, 20.375, 23.5, 22.375, 21.375, 22.75, 25.0, 20.375, 20.375, 21.75, 18.625, 23.875, 21.0, 21.375, 18.0, 23.125, 24.25, 19.75, 20.125, 20.75, 21.0, 20.375, 27.0, 27.875, 21.0, 20.75, 19.5, 25.75, 23.125, 25.0, 21.0, 22.125, 26.25, 21.375, 23.5, 23.125, 25.375, 21.375, 23.125, 22.375, 18.25, 20.125, 24.25, 20.375, 22.375, 24.25, 20.125, 21.75, 18.0, 19.125, 23.5, 19.5, 25.0, 21.75, 19.125, 22.375, 23.875, 17.25, 21.0, 23.875, 21.0, 23.125, 23.875, 20.75, 19.75, 24.25, 22.375, 23.125, 24.25, 18.875, 20.375, 18.625, 25.75, 19.5, 19.75, 17.75, 19.125, 26.25, 21.0, 20.75, 23.875, 25.0, 16.625, 19.5, 22.125, 19.5, 21.375, 20.75, 23.5, 27.0, 23.875, 19.125, 18.625, 22.125, 20.125, 20.75, 18.875, 17.75, 23.125, 21.375, 21.75, 24.25, 22.375, 19.75, 19.5, 23.5, 19.125, 21.375, 19.5, 25.75, 17.75, 22.75, 21.375, 23.125, 21.75, 19.125, 19.125, 23.875, 22.75, 19.5, 21.0, 19.125, 26.625, 22.75, 16.125, 23.125, 23.5, 23.5, 24.25, 20.375, 23.875, 20.375, 18.625, 20.75, 18.0, 20.375, 22.375, 22.375, 16.375, 20.75, 17.5, 21.375, 20.375, 20.375, 20.75, 20.125, 19.75, 25.0, 23.875, 20.75, 18.0, 18.25, 21.75, 19.5, 21.375, 22.375, 19.5, 20.75, 18.875, 21.375, 18.875, 22.375, 19.125, 19.5, 17.5, 22.125, 21.75, 19.5, 16.375, 19.125, 18.25, 18.875, 20.75, 21.375, 19.75, 18.875, 19.125, 22.125, 17.5, 18.25, 18.625, 20.75, 21.75, 19.125, 19.125, 20.75, 17.75, 16.875, 23.875, 21.375, 21.0, 20.75, 20.75, 17.25, 21.75, 23.125, 22.75, 18.625, 20.75, 16.875, 21.375, 21.0, 22.375, 18.875, 16.125, 18.25, 21.375, 21.375, 23.5, 17.5, 18.25, 21.75, 19.125, 17.75, 15.1875, 22.125, 20.75, 18.25, 19.5, 19.5, 20.125, 20.75, 18.625, 19.125, 18.0, 22.375, 18.875, 22.375, 18.625, 18.25, 18.25, 17.25, 17.25, 19.125, 19.125, 16.875, 19.5, 22.75, 17.5, 19.75, 21.75, 19.125, 20.125, 20.75, 18.625, 16.625, 17.75, 19.75, 22.75, 19.5, 18.625, 19.5, 18.625, 21.75, 21.375, 20.375, 23.875, 20.75, 20.75, 18.25, 21.0, 20.375, 22.125, 21.0, 21.0, 20.75, 20.75, 21.75, 17.75, 18.25, 23.125, 20.75, 18.625, 18.875, 19.75, 20.75, 15.625, 19.5, 16.875, 20.75, 20.125, 24.625, 22.375, 18.875, 23.875, 18.0, 22.375, 20.125, 18.625, 17.75, 18.625, 20.75, 22.375, 19.75, 16.625, 20.125, 17.75, 21.0, 18.875, 21.0, 19.125, 19.5, 18.25, 18.875, 18.625, 18.25, 19.5, 22.125, 19.75, 20.75, 19.5, 20.125, 18.875, 18.875, 22.75, 16.875, 19.5, 16.125, 19.75, 22.75, 17.75, 19.5, 17.25, 21.375, 20.75, 19.125, 20.75, 21.375, 18.875, 20.125, 20.75, 21.375, 18.875, 21.375, 18.0, 19.125, 21.0, 21.375, 18.875, 19.125, 18.25, 19.5, 18.625, 19.75, 20.125, 16.875, 17.75, 20.375, 19.75, 21.0, 21.0, 19.5, 20.75, 18.875, 23.875, 21.375, 18.625, 18.0, 19.5, 17.5, 22.125, 19.5, 21.0, 17.25, 17.75, 23.125, 18.25, 20.75, 15.1875, 16.375, 19.5, 17.25, 21.0, 18.25, 18.25, 19.75, 20.125, 18.25, 21.0, 19.125, 14.0, 20.125, 18.25, 20.375, 21.375, 23.875, 19.5, 21.0, 16.375, 16.625, 18.625, 17.25, 17.75, 17.5, 18.875, 17.5, 19.75, 20.125, 24.625, 20.75, 21.0, 21.375, 20.375, 22.125, 18.625, 20.125, 20.375, 18.875, 18.0, 20.125, 21.0, 17.75, 19.75, 23.125, 17.5, 19.125, 18.25, 17.5, 19.5, 16.875, 20.75, 16.625, 17.75, 18.0, 16.625, 18.0, 20.125, 15.1875, 20.125, 19.125, 19.75, 16.875, 16.625, 16.125, 18.25, 20.125, 17.75, 20.125, 22.375, 19.75, 22.375, 18.875, 19.5, 18.25, 17.25, 18.625, 16.625, 21.75, 20.375, 18.875, 17.75, 18.875, 21.75, 20.375, 20.375, 17.25, 17.25, 16.375, 20.375, 20.125, 16.375, 16.375, 18.625, 18.625, 19.125, 16.625, 17.75, 15.625, 16.375, 18.625, 20.125, 22.125, 20.125, 22.375, 17.25, 21.75, 20.375, 20.75, 19.125, 16.375, 17.75, 15.875, 21.75, 21.0, 16.125, 19.75, 17.5, 17.5, 20.375, 19.125, 19.75, 19.75, 17.75, 16.875, 16.125, 16.875, 18.25, 12.5625, 14.25, 17.75, 18.25, 19.5, 17.25, 18.0, 19.5, 19.125, 20.125, 19.75, 15.1875, 18.0, 16.875, 20.75, 15.625, 19.125, 19.75, 18.625, 21.0, 21.375, 19.125, 18.0, 20.75, 17.25, 19.125, 19.5, 18.0, 18.875, 19.75, 18.875, 23.5, 15.875, 17.25, 18.625, 16.375, 17.75, 17.5, 15.875, 22.75, 18.875, 19.75, 21.0, 16.875, 22.375, 17.25, 18.875, 16.625, 22.75, 17.25, 23.5, 18.875, 16.875, 13.0, 17.5, 21.75, 17.5, 16.375, 21.75, 22.125, 18.0, 18.0, 15.625, 20.375, 19.5, 17.25, 16.875, 20.375, 19.5, 18.875, 17.75, 17.5, 16.875, 18.625, 14.25, 18.625, 17.75, 15.4375, 17.75, 19.5, 15.875, 18.625, 13.375, 19.5, 21.0, 19.125, 19.125, 23.125, 18.0, 19.125, 15.4375, 15.1875, 20.125, 17.25, 19.125, 17.75, 11.4375, 14.6875, 16.375, 18.25, 20.125, 18.875, 18.875, 15.625, 18.625, 15.4375, 18.25, 17.75, 17.25, 18.0, 15.875, 18.625, 14.5, 20.375, 12.5625, 16.875, 16.625, 20.375, 18.25, 16.125, 18.625, 21.75, 18.0, 14.25, 18.25, 16.625, 17.25, 16.375, 14.5, 15.625, 22.125, 15.625, 24.625, 18.25, 18.875, 19.75, 15.4375, 16.875, 20.375, 14.6875, 17.25, 17.75, 18.875, 21.375, 16.375, 16.125, 18.625, 19.5, 18.625, 19.125, 18.625, 18.625, 23.125, 16.125, 20.125, 17.25, 18.25, 19.125, 18.0, 16.125, 14.5, 16.875, 20.125, 17.5, 19.125, 16.875, 14.9375, 18.25, 15.625, 17.75, 13.375, 15.875, 16.375, 18.625, 16.375, 14.6875, 17.25, 17.25, 18.0, 18.875, 16.625, 18.625, 18.25, 16.625, 16.125, 17.5, 16.125, 18.0, 16.375, 19.75, 15.4375, 18.875, 18.25, 17.25, 16.875, 18.25, 21.375, 14.5, 16.625, 20.75, 22.125, 19.125, 18.875, 18.25, 12.1875, 15.875, 15.625, 18.25, 14.5, 20.125, 16.875, 21.375, 17.25, 14.0, 16.625, 18.875, 20.375, 15.4375, 16.625, 17.5, 17.25, 18.25, 16.875, 18.25, 18.625, 19.125, 16.125, 15.625, 19.5, 14.5, 18.25, 14.5, 18.625, 18.0, 18.625, 14.25, 18.625, 15.4375, 15.875, 20.75, 17.75, 16.125, 18.0, 22.125, 18.25, 16.125, 16.125, 18.625, 17.25, 15.875, 15.625, 17.75, 19.75, 17.25, 17.75, 15.625, 16.875, 14.25, 17.5, 15.1875, 19.75, 20.375, 12.375, 19.5, 14.6875, 15.4375, 18.25, 16.625, 20.375, 20.375, 19.5, 18.0, 13.625, 16.625, 19.125, 18.625, 18.625, 16.375, 18.625, 14.0, 17.25, 16.125, 17.75, 16.375, 14.9375, 18.0, 19.75, 17.5, 16.375, 15.4375, 18.0, 18.875, 16.125, 18.0, 17.5, 16.125, 15.4375, 16.875, 17.75, 17.75, 16.375, 18.0, 16.875, 15.625, 15.875, 18.0, 17.5, 16.125, 17.5, 14.9375, 15.4375, 14.5, 15.4375, 16.875, 15.4375, 18.875, 16.375, 18.25, 16.625, 17.5, 18.25, 16.125, 17.25, 17.5, 16.375, 19.125, 18.0, 22.375, 17.25, 19.125, 14.5, 17.5, 18.875, 16.625, 16.625, 19.5, 17.5, 17.25, 18.25, 16.375, 15.875, 14.5, 18.25, 19.125, 19.5, 19.125, 16.125, 16.625, 15.1875, 14.9375, 15.1875, 16.375, 18.25, 14.25, 22.125, 17.75, 15.875, 13.8125, 15.875, 15.4375, 18.0, 13.375, 15.625, 18.625, 14.9375, 16.875, 20.375, 17.75, 20.375, 14.9375, 18.0, 16.625, 16.875, 18.25, 17.25, 16.875, 17.75, 17.25, 18.25, 18.25, 17.25, 14.6875, 17.5, 17.25, 25.0, 15.625, 15.625, 15.625, 17.75, 18.25, 18.625, 21.0, 15.4375, 18.875, 17.25, 15.875, 16.375, 16.875, 16.125, 18.875, 16.625, 16.625, 17.5, 18.0, 14.6875, 18.875, 16.125, 16.375, 17.75, 15.875, 15.625, 20.125, 16.375, 15.1875, 19.125, 17.75, 16.125, 14.5, 19.5, 18.875, 16.125, 17.5, 18.25, 15.4375, 17.25, 14.9375, 15.1875, 20.75, 14.9375, 16.125, 17.5, 17.25, 16.125, 13.1875, 18.0, 21.0, 18.0, 15.1875, 12.75, 16.625, 19.125, 16.875, 17.25, 14.6875, 16.375, 18.25, 15.1875, 17.5, 18.875, 18.625, 16.125, 16.125, 15.625, 13.8125, 17.75, 17.75, 14.25, 19.5, 17.5, 16.875, 17.5, 14.25, 17.75, 16.625, 15.625, 16.375, 16.125, 16.625, 17.75, 14.25, 14.0, 15.875, 15.875, 15.625, 20.75, 17.25, 14.5, 18.875, 15.4375, 19.125, 18.625, 16.125, 16.375, 16.875, 11.8125, 16.625, 14.5, 16.625, 15.875, 17.75, 15.1875, 15.1875, 16.125, 18.625, 15.4375, 18.0, 13.375, 14.9375, 18.625, 15.625, 16.375, 15.1875, 14.5, 15.875, 13.375, 17.25, 15.875, 15.875, 16.125, 15.1875, 18.0, 15.625, 15.625, 16.875, 16.625, 15.4375, 18.0, 15.875, 15.875, 18.25, 15.875, 18.0, 15.4375, 17.5, 16.875, 19.5, 16.625, 15.625, 17.5, 19.5, 16.875, 11.8125, 16.375, 15.875, 15.625, 17.5, 18.625, 17.25, 16.125, 16.875, 15.4375, 14.0, 17.25, 16.875, 17.25, 15.625, 19.5, 17.75, 15.4375, 17.5, 17.5, 19.125, 13.8125, 16.625, 16.875, 15.4375, 15.4375, 14.25, 16.875, 15.1875, 17.5, 14.25, 18.0, 17.75, 14.6875, 14.25, 15.875, 18.25, 17.25, 17.25, 16.625, 14.25, 16.125, 15.875, 17.5, 16.125, 17.5, 17.25, 17.25, 16.875, 12.5625, 18.625, 13.0, 16.625, 16.375, 13.0, 14.6875, 15.625, 16.125, 17.5, 17.25, 14.6875, 15.875, 18.875, 18.875, 14.25, 17.25, 14.9375, 14.5, 16.125, 16.875, 16.625, 14.0, 14.6875, 18.625, 15.1875, 18.0, 17.25, 17.75, 15.625, 17.75, 18.0, 16.625, 17.25, 14.6875, 15.1875, 16.625, 16.375, 16.625, 15.625, 17.25, 15.1875, 16.125, 18.25, 15.875, 13.1875, 16.625, 15.4375, 16.125, 18.875, 14.5, 15.1875, 17.5, 16.375, 16.125, 14.5, 16.125, 17.25, 18.25, 17.25, 16.625, 14.25, 14.5, 17.5, 18.625, 17.25, 17.75, 15.1875, 14.5, 16.625, 15.875, 14.5, 16.875, 16.875, 16.625, 18.0, 15.4375, 14.0, 16.375, 21.375, 16.625, 14.5, 16.375, 17.75, 13.625, 16.875, 16.125, 15.625, 16.125, 18.625, 22.375, 15.1875, 16.125, 15.625, 16.625, 15.875, 16.125, 14.9375, 16.125, 14.9375, 21.0, 13.625, 18.25, 18.0, 14.5, 14.9375, 18.0, 16.375, 15.625, 15.4375, 16.125, 16.875, 13.375, 21.375, 14.6875, 15.875, 15.4375, 14.5, 17.75, 16.625, 16.125, 14.9375, 15.625, 19.125, 16.625, 16.875, 16.375, 16.375, 17.25, 14.9375, 18.25, 18.25, 14.6875, 14.5, 17.5, 13.1875, 18.0, 15.625, 15.875, 14.9375, 15.1875, 16.875, 16.125, 17.5, 13.625, 14.9375, 17.75, 15.1875, 17.25, 15.625, 16.375, 15.875, 14.6875, 18.25, 14.0, 16.625, 17.5, 14.5, 17.25, 16.625, 16.375, 15.4375, 15.4375, 14.9375, 14.0, 17.75, 17.25, 17.5, 16.375, 17.5, 14.9375, 14.25, 13.375, 19.5, 18.25, 16.125, 16.375, 15.1875, 16.625, 15.625, 12.0, 14.0, 17.5, 15.625, 15.1875, 14.9375, 21.75, 16.875, 14.0, 14.5, 13.625, 13.8125, 17.75, 17.25, 20.75, 15.4375, 16.125, 15.1875, 14.9375, 18.875, 13.0, 15.875, 18.625, 16.125, 13.625, 13.625, 16.625, 15.625, 13.0, 16.625, 14.25, 14.6875, 16.375, 15.625, 13.8125, 14.9375, 16.125, 20.375, 14.0, 14.0, 15.875, 13.375, 15.1875, 14.25, 16.125, 14.9375, 12.75, 14.9375, 17.75, 20.375, 15.875, 15.1875, 13.625, 16.875, 19.5, 18.0, 14.0, 14.25, 13.1875, 16.625, 15.4375, 13.375, 15.875, 14.6875, 14.6875, 15.4375, 17.75, 12.0, 15.875, 18.625, 18.25, 14.5, 19.125, 15.875, 15.1875, 17.75, 12.75, 17.5, 14.6875, 14.0, 16.875, 14.25, 14.25, 14.5, 16.375, 14.5, 16.625, 16.375, 16.875, 14.25, 15.625, 16.375, 15.875, 17.25, 13.8125, 17.25, 14.5, 15.4375, 13.625, 16.625, 14.0, 13.375, 16.125, 13.0, 15.4375, 19.5, 18.0, 13.375, 16.375, 18.625, 15.875, 13.375, 16.625, 15.1875, 15.875, 17.75, 19.125, 13.0, 14.25, 15.4375, 14.25, 16.375, 13.1875, 15.875, 17.5, 19.5, 15.625, 15.875, 15.875, 15.1875, 16.125, 17.5, 16.625, 13.8125, 14.9375, 12.1875, 14.6875, 13.0, 15.625, 17.75, 17.25, 16.625, 15.1875, 15.625, 16.375, 14.9375, 13.1875, 18.625, 17.5, 15.1875, 12.375, 16.625, 15.875, 17.75, 15.625, 19.125, 13.625, 17.75, 14.25, 16.875, 14.0, 16.375, 16.125, 13.375, 13.0, 14.25, 14.9375, 14.6875, 12.1875, 15.625, 15.875, 18.0, 14.5, 17.5, 14.9375, 13.0, 13.8125, 14.9375, 14.0, 13.0, 14.0, 11.8125, 12.375, 13.8125, 12.0, 16.375, 12.5625, 15.1875, 13.1875, 16.875]","[0.0, 0.04726562649011612, 0.067626953125, 0.06450195610523224, 0.08515625447034836, 0.07968749850988388, 0.10102539509534836, 0.07954102009534836, 0.11191406100988388, 0.11572265625, 0.13090820610523224, 0.10200195759534836, 0.093505859375, 0.13906250894069672, 0.11054687947034836, 0.11967773735523224, 0.12246093899011612, 0.128173828125, 0.09096679836511612, 0.126708984375, 0.12607422471046448, 0.13325195014476776, 0.14394532144069672, 0.14345704019069672, 0.13686524331569672, 0.12758789956569672, 0.13168945908546448, 0.12470703572034836, 0.13271485269069672, 0.15986327826976776, 0.12939453125, 0.16132812201976776, 0.12807618081569672, 0.14873047173023224, 0.13251952826976776, 0.10444336384534836, 0.16904297471046448, 0.13955079019069672, 0.12158203125, 0.13144531846046448, 0.10878906399011612, 0.11997070163488388, 0.13608399033546448, 0.14321289956569672, 0.13325195014476776, 0.12822265923023224, 0.16816405951976776, 0.155029296875, 0.1025390625, 0.15854492783546448, 0.12812499701976776, 0.15878906846046448, 0.16948242485523224, 0.13784180581569672, 0.17255859076976776, 0.1376953125, 0.13041992485523224, 0.15869140625, 0.12290038913488388, 0.15273438394069672, 0.12905274331569672, 0.17656250298023224, 0.16811524331569672, 0.14438477158546448, 0.14199219644069672, 0.14765624701976776, 0.19306640326976776, 0.15200196206569672, 0.17373047769069672, 0.13862304389476776, 0.16044922173023224, 0.12724609673023224, 0.16806641221046448, 0.15937499701976776, 0.19780273735523224, 0.13750000298023224, 0.19306640326976776, 0.147216796875, 0.17099609971046448, 0.13129882514476776, 0.15126954019069672, 0.1669921875, 0.17231445014476776, 0.168701171875, 0.17250977456569672, 0.132568359375, 0.17719726264476776, 0.15004883706569672, 0.16757813096046448, 0.18032227456569672, 0.16425780951976776, 0.13974609971046448, 0.15922851860523224, 0.17636719346046448, 0.18925781548023224, 0.18647460639476776, 0.16909180581569672, 0.13979493081569672, 0.19672851264476776, 0.14492188394069672, 0.18310546875, 0.18735352158546448, 0.17275391519069672, 0.19257812201976776, 0.16904297471046448, 0.19047851860523224, 0.20166015625, 0.16367188096046448, 0.17255859076976776, 0.17719726264476776, 0.15742187201976776, 0.2041015625, 0.169189453125, 0.20541992783546448, 0.18632812798023224, 0.20659179985523224, 0.17509765923023224, 0.21665039658546448, 0.19682617485523224, 0.19770507514476776, 0.20566406846046448, 0.17563477158546448, 0.17592774331569672, 0.156982421875, 0.15351562201976776, 0.21499024331569672, 0.18632812798023224, 0.17690430581569672, 0.20673827826976776, 0.19965820014476776, 0.17392578721046448, 0.20742188394069672, 0.22666016221046448, 0.1875, 0.151123046875, 0.18251954019069672, 0.23388671875, 0.17695312201976776, 0.14111328125, 0.16933594644069672, 0.1748046875, 0.14091797173023224, 0.15678711235523224, 0.24160157144069672, 0.19643555581569672, 0.1708984375, 0.17392578721046448, 0.21616211533546448, 0.18852539360523224, 0.23232422769069672, 0.23808594048023224, 0.13813476264476776, 0.18549804389476776, 0.19536133110523224, 0.21625976264476776, 0.17910157144069672, 0.20253907144069672, 0.19301758706569672, 0.18681640923023224, 0.23749999701976776, 0.17416992783546448, 0.20395508408546448, 0.19072265923023224, 0.190185546875, 0.23833008110523224, 0.16166992485523224, 0.227783203125, 0.16582031548023224, 0.19790039956569672, 0.18012695014476776, 0.19550780951976776, 0.227294921875, 0.22587890923023224, 0.24541015923023224, 0.1962890625, 0.20009766519069672, 0.20161132514476776, 0.22705078125, 0.17465820908546448, 0.24838867783546448, 0.19912110269069672, 0.20366211235523224, 0.20878906548023224, 0.24555663764476776, 0.19277344644069672, 0.2138671875, 0.21054688096046448, 0.20737305283546448, 0.251220703125, 0.199462890625, 0.19428710639476776, 0.20917968451976776, 0.22802734375, 0.22080078721046448, 0.23647461831569672, 0.198486328125, 0.24526368081569672, 0.17104493081569672, 0.21308593451976776, 0.23105469346046448, 0.21372070908546448, 0.22084961831569672, 0.24609375, 0.2811035215854645, 0.17617188394069672, 0.21220703423023224, 0.208251953125, 0.197998046875, 0.191650390625, 0.19794921576976776, 0.18344727158546448, 0.255859375, 0.23295898735523224, 0.248291015625, 0.17636719346046448, 0.26640626788139343, 0.23090820014476776, 0.219970703125, 0.21079102158546448, 0.18891601264476776, 0.20375977456569672, 0.235107421875, 0.21103516221046448, 0.20268554985523224, 0.19101563096046448, 0.221435546875, 0.22856445610523224, 0.24213866889476776, 0.21284179389476776, 0.197509765625, 0.24790039658546448, 0.24624024331569672, 0.20693360269069672, 0.24116210639476776, 0.23471680283546448, 0.21337890625, 0.263916015625, 0.22773437201976776, 0.22524414956569672, 0.17734375596046448, 0.233154296875, 0.243408203125, 0.20517578721046448, 0.17451171576976776, 0.19272461533546448, 0.21240234375, 0.21962891519069672, 0.24428711831569672, 0.23261718451976776, 0.19291992485523224, 0.21933594346046448, 0.203369140625, 0.21518555283546448, 0.19584961235523224, 0.21010743081569672, 0.21127930283546448, 0.20839844644069672, 0.206787109375, 0.1796875, 0.25019532442092896, 0.21533203125, 0.21513672173023224, 0.21123047173023224, 0.19345703721046448, 0.28364259004592896, 0.20991210639476776, 0.21757812798023224, 0.23291015625, 0.21420899033546448, 0.23037110269069672, 0.16425780951976776, 0.22734375298023224, 0.2552246153354645, 0.21499024331569672, 0.19570313394069672, 0.196044921875, 0.25634765625, 0.21645508706569672, 0.24541015923023224, 0.28886720538139343, 0.18598632514476776, 0.25048828125, 0.23588867485523224, 0.232177734375, 0.24516601860523224, 0.19003906846046448, 0.22885742783546448, 0.22519531846046448, 0.19487304985523224, 0.24199219048023224, 0.290283203125, 0.207275390625, 0.24848632514476776, 0.22265625, 0.19765625894069672, 0.24467773735523224, 0.22636719048023224, 0.24057617783546448, 0.2503906190395355, 0.220458984375, 0.24418945610523224, 0.29545900225639343, 0.24746094644069672, 0.189453125, 0.20053711533546448, 0.23710937798023224, 0.2841796875, 0.20488281548023224, 0.24521484971046448, 0.24677734076976776, 0.24404297769069672, 0.247802734375, 0.21875, 0.2710937559604645, 0.23715820908546448, 0.20292969048023224, 0.20527343451976776, 0.20009766519069672, 0.19692383706569672, 0.23564453423023224, 0.23002929985523224, 0.25019532442092896, 0.23671875894069672, 0.22026367485523224, 0.21186523139476776, 0.2060546875, 0.27753907442092896, 0.23564453423023224, 0.236083984375, 0.28564453125, 0.2314453125, 0.207763671875, 0.2672363221645355, 0.24628905951976776, 0.20327149331569672, 0.26318359375, 0.21831054985523224, 0.23056641221046448, 0.271484375, 0.20917968451976776, 0.19248047471046448, 0.25800782442092896, 0.27070313692092896, 0.21284179389476776, 0.20371094346046448, 0.27324220538139343, 0.2618164122104645, 0.2677246034145355, 0.21435546875, 0.22153320908546448, 0.22041015326976776, 0.22197265923023224, 0.23046875, 0.217529296875, 0.24458007514476776, 0.24589844048023224, 0.25175783038139343, 0.22617188096046448, 0.18281249701976776, 0.2770019471645355, 0.23886719346046448, 0.22802734375, 0.16152344644069672, 0.20224609971046448, 0.21708984673023224, 0.25981447100639343, 0.22792969644069672, 0.2540527284145355, 0.22578124701976776, 0.21157227456569672, 0.23715820908546448, 0.27509766817092896, 0.22421875596046448, 0.25053712725639343, 0.23325195908546448, 0.23007813096046448, 0.20566406846046448, 0.23496094346046448, 0.25244140625, 0.22539062798023224, 0.21269531548023224, 0.22695313394069672, 0.252685546875, 0.22148437798023224, 0.2216796875, 0.23393554985523224, 0.2603515684604645, 0.25678712129592896, 0.19770507514476776, 0.24345703423023224, 0.26250001788139343, 0.240966796875, 0.2535156309604645, 0.23403321206569672, 0.2582031190395355, 0.24072265625, 0.21279297769069672, 0.29248046875, 0.28666993975639343, 0.19843749701976776, 0.2596679627895355, 0.24111329019069672, 0.23193359375, 0.29267579317092896, 0.290771484375, 0.23291015625, 0.23842774331569672, 0.25947266817092896, 0.24028320610523224, 0.23374024033546448, 0.26044923067092896, 0.23598633706569672, 0.30756837129592896, 0.2525390684604645, 0.23710937798023224, 0.21738281846046448, 0.26225587725639343, 0.22250977158546448, 0.23955078423023224, 0.22397461533546448, 0.23525391519069672, 0.24814453721046448, 0.22744141519069672, 0.21855469048023224, 0.2840820252895355, 0.2559570372104645, 0.22802734375, 0.15317383408546448, 0.25224611163139343, 0.24809570610523224, 0.22304688394069672, 0.23569336533546448, 0.25322267413139343, 0.2294921875, 0.241455078125, 0.23037110269069672, 0.27392578125, 0.22661133110523224, 0.21943359076976776, 0.26704102754592896, 0.22114257514476776, 0.2333984375, 0.253173828125, 0.22597657144069672, 0.252685546875, 0.28662109375, 0.283203125, 0.23295898735523224, 0.2704101502895355, 0.28046876192092896, 0.24760742485523224, 0.243896484375, 0.24921874701976776, 0.2579101622104645, 0.25410157442092896, 0.26997071504592896, 0.21049804985523224, 0.24101562798023224, 0.281494140625, 0.22060547769069672, 0.25166016817092896, 0.24526368081569672, 0.2513183653354645, 0.23647461831569672, 0.2645507752895355, 0.27045899629592896, 0.260986328125, 0.2625976502895355, 0.26704102754592896, 0.27080079913139343, 0.28193360567092896, 0.23759765923023224, 0.23784179985523224, 0.2857421934604645, 0.28515625, 0.2545410096645355, 0.29931640625, 0.253662109375, 0.22758789360523224, 0.24091796576976776, 0.20356445014476776, 0.2789550721645355, 0.215087890625, 0.21352539956569672, 0.20859375596046448, 0.20522461831569672, 0.27143555879592896, 0.27070313692092896, 0.18984375894069672, 0.21708984673023224, 0.2503418028354645, 0.207763671875, 0.21201172471046448, 0.29291993379592896, 0.20747070014476776, 0.24672852456569672, 0.21953125298023224, 0.25615236163139343, 0.23891602456569672, 0.2431640625, 0.20078125596046448, 0.24345703423023224, 0.26591798663139343, 0.2777343690395355, 0.25078126788139343, 0.21181641519069672, 0.23422852158546448, 0.2774902284145355, 0.25395509600639343, 0.2918945252895355, 0.259521484375, 0.22910156846046448, 0.24062500894069672, 0.24565429985523224, 0.24965821206569672, 0.25468751788139343, 0.26152345538139343, 0.263916015625, 0.31499025225639343, 0.24257813394069672, 0.31098634004592896, 0.2572265565395355, 0.31010743975639343, 0.20454101264476776, 0.24838867783546448, 0.3091796934604645, 0.24545899033546448, 0.2109375, 0.24223633110523224, 0.3284668028354645, 0.22543945908546448, 0.2572265565395355, 0.27788087725639343, 0.24135743081569672, 0.21005859971046448, 0.24575196206569672, 0.25751954317092896, 0.22480468451976776, 0.21079102158546448, 0.24228516221046448, 0.2577148377895355, 0.23334960639476776, 0.17841796576976776, 0.23833008110523224, 0.21533203125, 0.21640625596046448, 0.25898438692092896, 0.2669433653354645, 0.2596191465854645, 0.24165038764476776, 0.23701171576976776, 0.2601562440395355, 0.25922852754592896, 0.21889649331569672, 0.24702148139476776, 0.22221679985523224, 0.21210937201976776, 0.246826171875, 0.24165038764476776, 0.21635742485523224, 0.2669433653354645, 0.2945312559604645, 0.21015624701976776, 0.22758789360523224, 0.24965821206569672, 0.24086914956569672, 0.20278321206569672, 0.27495118975639343, 0.266845703125, 0.2767089903354645, 0.232666015625, 0.24213866889476776, 0.23208008706569672, 0.23652343451976776, 0.24453125894069672, 0.21918945014476776, 0.20624999701976776, 0.2815918028354645, 0.2470703125, 0.20473633706569672, 0.2757324278354645, 0.20278321206569672, 0.22304688394069672, 0.20917968451976776, 0.23530273139476776, 0.25336915254592896, 0.285400390625, 0.26323243975639343, 0.24506835639476776, 0.22841797769069672, 0.2613281309604645, 0.2537597715854645, 0.234375, 0.22944335639476776, 0.24462890625, 0.24184571206569672, 0.2777343690395355, 0.2431640625, 0.19047851860523224, 0.2728027403354645, 0.2579589784145355, 0.306396484375, 0.26416015625, 0.2744140625, 0.23374024033546448, 0.22158204019069672, 0.2879882752895355, 0.2562499940395355, 0.21718750894069672, 0.2598632872104645, 0.20366211235523224, 0.2574218809604645, 0.254638671875, 0.26640626788139343, 0.22309570014476776, 0.2615722715854645, 0.24423828721046448, 0.26005861163139343, 0.21577148139476776, 0.173828125, 0.1923828125, 0.28593751788139343, 0.23662109673023224, 0.24262695014476776, 0.26201173663139343, 0.27241212129592896, 0.23227539658546448, 0.30097657442092896, 0.24853515625, 0.18730469048023224, 0.2666015625, 0.2696289122104645, 0.24521484971046448, 0.23774413764476776, 0.2618652284145355, 0.23964844644069672, 0.20429687201976776, 0.19736328721046448, 0.22451172769069672, 0.25458985567092896, 0.21328125894069672, 0.23876953125, 0.21787109971046448, 0.25517579913139343, 0.24931640923023224, 0.23603515326976776, 0.29716798663139343, 0.22021484375, 0.24965821206569672, 0.22519531846046448, 0.22080078721046448, 0.23623047769069672, 0.178955078125, 0.26103517413139343, 0.24819336831569672, 0.2510742247104645, 0.24770508706569672, 0.26298829913139343, 0.21396484971046448, 0.20048828423023224, 0.28125, 0.30908203125, 0.211669921875, 0.242431640625, 0.2513671815395355, 0.21884766221046448, 0.24375000596046448, 0.302490234375, 0.2649902403354645, 0.23222656548023224, 0.28291016817092896, 0.19599609076976776, 0.25800782442092896, 0.22407226264476776, 0.2804199159145355, 0.21987305581569672, 0.2925781309604645, 0.23583984375, 0.2770019471645355, 0.21914063394069672, 0.2783203125, 0.23554687201976776, 0.24394531548023224, 0.2815918028354645, 0.22402344644069672, 0.23701171576976776, 0.3150878846645355, 0.26884767413139343, 0.310546875, 0.27705079317092896, 0.228271484375, 0.2533203065395355, 0.24594727158546448, 0.2689453065395355, 0.3040527403354645, 0.27583009004592896, 0.2845703065395355, 0.27519533038139343, 0.25126954913139343, 0.254638671875, 0.22402344644069672, 0.22187499701976776, 0.2862304747104645, 0.26142579317092896, 0.22983399033546448, 0.28857421875, 0.31352540850639343, 0.29887697100639343, 0.179931640625, 0.20107422769069672, 0.2509765625, 0.299072265625, 0.3014160096645355, 0.23525391519069672, 0.203857421875, 0.20283202826976776, 0.2762695252895355, 0.2571777403354645, 0.26752930879592896, 0.31254884600639343, 0.2618164122104645, 0.21982422471046448, 0.29179689288139343, 0.23647461831569672, 0.19370117783546448, 0.24477539956569672, 0.30952149629592896, 0.24189452826976776, 0.264404296875, 0.26508790254592896, 0.28974610567092896, 0.24912109971046448, 0.22270508110523224, 0.20351563394069672, 0.29765626788139343, 0.29169923067092896, 0.22182618081569672, 0.28974610567092896, 0.282958984375, 0.20952148735523224, 0.2574218809604645, 0.23798827826976776, 0.2723632752895355, 0.24848632514476776, 0.19389648735523224, 0.2545410096645355, 0.21025390923023224, 0.23710937798023224, 0.22724609076976776, 0.20493164658546448, 0.26240235567092896, 0.26655274629592896, 0.23637695610523224, 0.2781738340854645, 0.25146484375, 0.253662109375, 0.21396484971046448, 0.23085938394069672, 0.2547363340854645, 0.24042968451976776, 0.20849609375, 0.279296875, 0.19492188096046448, 0.22871093451976776, 0.26801759004592896, 0.2684082090854645, 0.23383788764476776, 0.245849609375, 0.22050781548023224, 0.31767579913139343, 0.22358398139476776, 0.2926269471645355, 0.22006836533546448, 0.2784667909145355, 0.298828125, 0.2738281190395355, 0.19462890923023224, 0.25776368379592896, 0.27617189288139343, 0.27192384004592896, 0.22993163764476776, 0.23383788764476776, 0.24614258110523224, 0.2796386778354645, 0.27177736163139343, 0.26860353350639343, 0.21201172471046448, 0.2490234375, 0.27495118975639343, 0.23388671875, 0.2701660096645355, 0.2538085877895355, 0.26860353350639343, 0.2687011659145355, 0.23276367783546448, 0.21923828125, 0.288330078125, 0.32172852754592896, 0.24648438394069672, 0.2594238221645355, 0.2931152284145355, 0.27290040254592896, 0.2718261778354645, 0.24843750894069672, 0.2623535096645355, 0.281494140625, 0.31816408038139343, 0.25517579913139343, 0.24501954019069672, 0.2621093690395355, 0.31035158038139343, 0.2762207090854645, 0.25541993975639343, 0.22841797769069672, 0.21811524033546448, 0.254150390625, 0.295654296875, 0.20195312798023224, 0.218994140625, 0.23066405951976776, 0.2957519590854645, 0.24912109971046448, 0.24443359673023224, 0.2550292909145355, 0.23007813096046448, 0.22182618081569672, 0.2938476502895355, 0.26220703125, 0.2894531190395355, 0.28901368379592896, 0.22939454019069672, 0.27587890625, 0.23291015625, 0.2540527284145355, 0.2747558653354645, 0.23823241889476776, 0.280029296875, 0.21870116889476776, 0.23935547471046448, 0.24956054985523224, 0.27167969942092896, 0.26787111163139343, 0.248291015625, 0.2770019471645355, 0.21933594346046448, 0.24770508706569672, 0.19370117783546448, 0.2894531190395355, 0.30961915850639343, 0.22968749701976776, 0.259033203125, 0.23813477158546448, 0.22109375894069672, 0.2896484434604645, 0.18813477456569672, 0.2996582090854645, 0.24008789658546448, 0.2562499940395355, 0.24179688096046448, 0.2783203125, 0.29487305879592896, 0.23979492485523224, 0.2896484434604645, 0.23466797173023224, 0.2637695372104645, 0.22866211831569672, 0.266845703125, 0.305908203125, 0.30415040254592896, 0.28759765625, 0.22622071206569672, 0.270751953125, 0.2743164002895355, 0.197265625, 0.31914064288139343, 0.30292969942092896, 0.2759765684604645, 0.24223633110523224, 0.2715820372104645, 0.26518556475639343, 0.30693361163139343, 0.22792969644069672, 0.3182617127895355, 0.26567384600639343, 0.3101562559604645, 0.20869140326976776, 0.2581543028354645, 0.2989746034145355, 0.275146484375, 0.25444337725639343, 0.2616210877895355, 0.2528320252895355, 0.22006836533546448, 0.2686523497104645, 0.2158203125, 0.27143555879592896, 0.24140624701976776, 0.3155761659145355, 0.23945312201976776, 0.27617189288139343, 0.25996094942092896, 0.26665040850639343, 0.21474610269069672, 0.22036133706569672, 0.25, 0.21391601860523224, 0.21762695908546448, 0.21381835639476776, 0.25029298663139343, 0.25395509600639343, 0.25898438692092896, 0.24287109076976776, 0.2560058534145355, 0.25776368379592896, 0.24028320610523224, 0.302734375, 0.2884277403354645, 0.24335937201976776, 0.2421875, 0.20961914956569672, 0.20258788764476776, 0.21650390326976776, 0.24545899033546448, 0.21015624701976776, 0.28388673067092896, 0.2608398497104645, 0.22685547173023224, 0.2772460877895355, 0.25322267413139343, 0.34130859375, 0.2747558653354645, 0.2540527284145355, 0.27875977754592896, 0.2996582090854645, 0.20356445014476776, 0.3014160096645355, 0.24082031846046448, 0.23027344048023224, 0.19951172173023224, 0.29912111163139343, 0.2720703184604645, 0.23007813096046448, 0.2589355409145355, 0.163330078125, 0.22587890923023224, 0.266845703125, 0.19101563096046448, 0.31640625, 0.260498046875, 0.30976563692092896, 0.24711914360523224, 0.24848632514476776, 0.27348634600639343, 0.24423828721046448, 0.21542969346046448, 0.268310546875, 0.2748046815395355, 0.2882324159145355, 0.26166993379592896, 0.24038086831569672, 0.23872070014476776, 0.2532714903354645, 0.252197265625, 0.3113769590854645, 0.2918457090854645, 0.22084961831569672, 0.21870116889476776, 0.23222656548023224, 0.2865234315395355, 0.2549804747104645, 0.23334960639476776, 0.23540039360523224, 0.2540039122104645, 0.3165039122104645, 0.2506347596645355, 0.24541015923023224, 0.292724609375, 0.27949219942092896, 0.2721191346645355, 0.27226564288139343, 0.22988282144069672, 0.29682618379592896, 0.28740236163139343, 0.22368164360523224, 0.27348634600639343, 0.24960938096046448, 0.2765136659145355, 0.212158203125, 0.270751953125, 0.21748046576976776, 0.248291015625, 0.25874024629592896, 0.2882324159145355, 0.263916015625, 0.274658203125, 0.23940430581569672, 0.2547363340854645, 0.24165038764476776, 0.24897460639476776, 0.23974609375, 0.25410157442092896, 0.2830566465854645, 0.24228516221046448, 0.32275390625, 0.22695313394069672, 0.20268554985523224, 0.24350586533546448, 0.26127931475639343, 0.27934572100639343, 0.24521484971046448, 0.27788087725639343, 0.29423829913139343, 0.27958986163139343, 0.31499025225639343, 0.25244140625, 0.2676757872104645, 0.24384765326976776, 0.25800782442092896, 0.26679688692092896, 0.27226564288139343, 0.2720703184604645, 0.20458984375, 0.27924805879592896, 0.2605957090854645, 0.31596681475639343, 0.25019532442092896, 0.27875977754592896, 0.2931152284145355, 0.216796875, 0.27509766817092896, 0.24541015923023224, 0.24921874701976776, 0.23823241889476776, 0.25703126192092896, 0.22915039956569672, 0.2939453125, 0.31416016817092896, 0.2916503846645355, 0.23959961533546448, 0.2691894471645355, 0.30522462725639343, 0.25898438692092896, 0.22416992485523224, 0.2908691465854645, 0.27104493975639343, 0.27485352754592896, 0.22895507514476776, 0.205322265625, 0.24946288764476776, 0.25249025225639343, 0.2613281309604645, 0.247314453125, 0.29340821504592896, 0.302490234375, 0.27031251788139343, 0.251953125, 0.20644532144069672, 0.21860352158546448, 0.28032228350639343, 0.23618164658546448, 0.253173828125, 0.24951171875, 0.259521484375, 0.22636719048023224, 0.2791503965854645, 0.2688964903354645, 0.2613281309604645, 0.2931152284145355, 0.27534180879592896, 0.20737305283546448, 0.233642578125, 0.236572265625, 0.22626952826976776, 0.28471681475639343, 0.24160157144069672, 0.23881836235523224, 0.26762697100639343, 0.22832031548023224, 0.24970702826976776, 0.24135743081569672, 0.23334960639476776, 0.2843261659145355, 0.24174804985523224, 0.24262695014476776, 0.25664064288139343, 0.2891601622104645, 0.26372072100639343, 0.24956054985523224, 0.24824218451976776, 0.2903808653354645, 0.2666992247104645, 0.3016601502895355, 0.246337890625, 0.26826173067092896, 0.26166993379592896, 0.22719727456569672, 0.2099609375, 0.248046875, 0.2591796815395355, 0.26289063692092896, 0.357666015625, 0.22470703721046448, 0.28813478350639343, 0.21811524033546448, 0.21713867783546448, 0.22353516519069672, 0.2687011659145355, 0.17075195908546448, 0.23676757514476776, 0.27836915850639343, 0.23300781846046448, 0.2605957090854645, 0.2513183653354645, 0.23857422173023224, 0.2638183534145355, 0.2730956971645355, 0.28691408038139343, 0.2779296934604645, 0.2828613221645355, 0.224853515625, 0.24482421576976776, 0.26347658038139343, 0.27558594942092896, 0.27617189288139343, 0.29472658038139343, 0.22612304985523224, 0.28662109375, 0.2783203125, 0.24560546875, 0.25146484375, 0.24550782144069672, 0.22758789360523224, 0.26274415850639343, 0.20756836235523224, 0.30537110567092896, 0.2879882752895355, 0.24306641519069672, 0.2958984375, 0.24091796576976776, 0.258544921875, 0.3260253965854645, 0.22104492783546448, 0.26030275225639343, 0.22065429389476776, 0.21987305581569672, 0.32280275225639343, 0.25727540254592896, 0.25883790850639343, 0.2666015625, 0.2506347596645355, 0.27177736163139343, 0.29790040850639343, 0.22709961235523224, 0.3079589903354645, 0.20185546576976776, 0.28374025225639343, 0.3179687559604645, 0.29443359375, 0.24008789658546448, 0.23173828423023224, 0.23222656548023224, 0.24843750894069672, 0.28203126788139343, 0.23789063096046448, 0.286376953125, 0.27690431475639343, 0.259765625, 0.28251954913139343, 0.25288087129592896, 0.2911132872104645, 0.23325195908546448, 0.21494141221046448, 0.2530273497104645, 0.22700195014476776, 0.25590822100639343, 0.226318359375, 0.2626953125, 0.2994140684604645, 0.2884765565395355, 0.296630859375, 0.26616212725639343, 0.24013672769069672, 0.23320312798023224, 0.26030275225639343, 0.250732421875, 0.2958007752895355, 0.29975587129592896, 0.26289063692092896, 0.272705078125, 0.24663086235523224, 0.26435548067092896, 0.2730956971645355, 0.2960449159145355, 0.28789064288139343, 0.25390625, 0.288818359375, 0.26152345538139343, 0.22783203423023224, 0.2763671875, 0.30156251788139343, 0.262939453125, 0.244140625, 0.221923828125, 0.27045899629592896, 0.22954101860523224, 0.24980469048023224, 0.2701660096645355, 0.3094238340854645, 0.29472658038139343, 0.30659180879592896, 0.2640624940395355, 0.252197265625, 0.3023925721645355, 0.24321289360523224, 0.23906250298023224, 0.24150390923023224, 0.294189453125, 0.26665040850639343, 0.2666992247104645, 0.2586914002895355, 0.27094727754592896, 0.3196777403354645, 0.29511719942092896, 0.256103515625, 0.26347658038139343, 0.2688964903354645, 0.23261718451976776, 0.23867188394069672, 0.22944335639476776, 0.22998046875, 0.21787109971046448, 0.23017577826976776, 0.22324219346046448, 0.2737793028354645, 0.2630371153354645, 0.31669923663139343, 0.2796386778354645, 0.22202149033546448, 0.2577148377895355, 0.26469728350639343, 0.24833984673023224, 0.20737305283546448, 0.27192384004592896, 0.25146484375, 0.27753907442092896, 0.26093751192092896, 0.25166016817092896, 0.23681640625, 0.2779785096645355, 0.30253908038139343, 0.2767089903354645, 0.27978515625, 0.3170410096645355, 0.2586914002895355, 0.28925782442092896, 0.2789062559604645, 0.2762695252895355, 0.3138183653354645, 0.267578125, 0.26542970538139343, 0.210693359375, 0.27690431475639343, 0.22446289658546448, 0.24526368081569672, 0.26494142413139343, 0.2894531190395355, 0.3284668028354645, 0.2392578125, 0.28559571504592896, 0.2587890625, 0.2757324278354645, 0.24990235269069672, 0.3060058653354645, 0.33544921875, 0.29790040850639343, 0.25834962725639343, 0.25688478350639343, 0.24575196206569672, 0.28081056475639343, 0.24384765326976776, 0.22265625, 0.3240722715854645, 0.25434571504592896, 0.31733399629592896, 0.29521486163139343, 0.30400392413139343, 0.32880860567092896, 0.31982421875, 0.291259765625, 0.24897460639476776, 0.22934570908546448, 0.23203125596046448, 0.240478515625, 0.27045899629592896, 0.20317383110523224, 0.26069337129592896, 0.24165038764476776, 0.24111329019069672, 0.27763673663139343, 0.29833984375, 0.24550782144069672, 0.21479491889476776, 0.23627929389476776, 0.23911133408546448, 0.2861328125, 0.26318359375, 0.23027344048023224, 0.24638672173023224, 0.29345703125, 0.24985352158546448, 0.3060058653354645, 0.23295898735523224, 0.265380859375, 0.2964843809604645, 0.24833984673023224, 0.2518554627895355, 0.28754884004592896, 0.24575196206569672, 0.3043456971645355, 0.2549804747104645, 0.25244140625, 0.32084962725639343, 0.275390625, 0.28999024629592896, 0.2657714784145355, 0.215576171875, 0.31049805879592896, 0.24785156548023224, 0.216064453125, 0.3041015565395355, 0.22392578423023224, 0.2620605528354645, 0.30839845538139343, 0.25458985567092896, 0.20136718451976776, 0.2522949278354645, 0.20273438096046448, 0.22568359971046448, 0.2591796815395355, 0.3155273497104645, 0.22490234673023224, 0.27641603350639343, 0.245849609375, 0.2900390625, 0.2864746153354645, 0.225341796875, 0.31220704317092896, 0.250244140625, 0.3001464903354645, 0.25898438692092896, 0.22880859673023224, 0.2882324159145355, 0.2787109315395355, 0.2721191346645355, 0.24267578125, 0.22578124701976776, 0.26640626788139343, 0.24394531548023224, 0.23525391519069672, 0.25390625, 0.2857421934604645, 0.26220703125, 0.24360351264476776, 0.24394531548023224, 0.32255861163139343, 0.24819336831569672, 0.24345703423023224, 0.23676757514476776, 0.274658203125, 0.2567382752895355, 0.18867187201976776, 0.322265625, 0.3060058653354645, 0.2757812440395355, 0.28076171875, 0.2562499940395355, 0.27055665850639343, 0.280517578125, 0.23930664360523224, 0.276123046875, 0.29243165254592896, 0.24653320014476776, 0.29960939288139343, 0.3436035215854645, 0.3193359375, 0.2843261659145355, 0.29252931475639343, 0.30585938692092896, 0.24306641519069672, 0.29155275225639343, 0.299560546875, 0.3013671934604645, 0.2613281309604645, 0.24165038764476776, 0.20834961533546448, 0.23652343451976776, 0.3243652284145355, 0.2894531190395355, 0.28349611163139343, 0.24296875298023224, 0.28984376788139343, 0.34765625, 0.31938478350639343, 0.2564941346645355, 0.25654298067092896, 0.24980469048023224, 0.24228516221046448, 0.25273439288139343, 0.2850097715854645, 0.26801759004592896, 0.23310546576976776, 0.260009765625, 0.30830079317092896, 0.26923829317092896, 0.27080079913139343, 0.2633300721645355, 0.19321289658546448, 0.33637696504592896, 0.2158203125, 0.20468750596046448, 0.2716308534145355, 0.23862305283546448, 0.2943359315395355, 0.2933593690395355, 0.2872558534145355, 0.2945312559604645, 0.26972657442092896, 0.2852539122104645, 0.2730956971645355, 0.27802735567092896, 0.273193359375, 0.28339844942092896, 0.20786133408546448, 0.28618165850639343, 0.28759765625, 0.2568359375, 0.30463868379592896, 0.2564453184604645, 0.28754884004592896, 0.26044923067092896, 0.22539062798023224, 0.31171876192092896, 0.2730956971645355, 0.3006347715854645, 0.2977050840854645, 0.30351564288139343, 0.2811523377895355, 0.2940429747104645, 0.2933105528354645, 0.244384765625, 0.3211914002895355, 0.2637695372104645, 0.26875001192092896, 0.2584472596645355, 0.23735351860523224, 0.26250001788139343, 0.25634765625, 0.2967773377895355, 0.2652343809604645, 0.29536134004592896, 0.3163085877895355, 0.2560058534145355, 0.31538087129592896, 0.21987305581569672, 0.2933105528354645, 0.308837890625, 0.26240235567092896, 0.29545900225639343, 0.29194337129592896, 0.2999023497104645, 0.272216796875, 0.2752929627895355, 0.300048828125, 0.3043456971645355, 0.2628417909145355, 0.24931640923023224, 0.22431640326976776, 0.22324219346046448, 0.23208008706569672, 0.2608398497104645, 0.268310546875, 0.2679687440395355, 0.18979492783546448, 0.29296875, 0.24882812798023224, 0.23334960639476776, 0.22163085639476776, 0.24213866889476776, 0.241943359375, 0.26044923067092896, 0.297607421875, 0.29150390625, 0.30415040254592896, 0.27299806475639343, 0.21328125894069672, 0.2621093690395355, 0.3006347715854645, 0.24482421576976776, 0.32465821504592896, 0.31108400225639343, 0.2831054627895355, 0.23149414360523224, 0.26176759600639343, 0.26215821504592896, 0.25166016817092896, 0.28559571504592896, 0.246337890625, 0.26044923067092896, 0.27900391817092896, 0.26274415850639343, 0.20854492485523224, 0.2928710877895355, 0.29633790254592896, 0.2811523377895355, 0.24697266519069672, 0.270263671875, 0.26484376192092896, 0.2918457090854645, 0.31132814288139343, 0.23911133408546448, 0.263671875, 0.28901368379592896, 0.24838867783546448, 0.24492187798023224, 0.30424806475639343, 0.26738283038139343, 0.25078126788139343, 0.3312011659145355, 0.2606445252895355, 0.2740234434604645, 0.275146484375, 0.3209472596645355, 0.236083984375, 0.2685546875, 0.25371095538139343, 0.340087890625, 0.29829102754592896, 0.2576660215854645, 0.2577148377895355, 0.3003906309604645, 0.28569337725639343, 0.31538087129592896, 0.24809570610523224, 0.26054689288139343, 0.32958984375, 0.2801757752895355, 0.2518554627895355, 0.260498046875, 0.2677246034145355, 0.3057617247104645, 0.27631837129592896, 0.2898925840854645, 0.27778321504592896, 0.26118165254592896, 0.28950196504592896, 0.22519531846046448, 0.25141602754592896, 0.28466796875, 0.29619142413139343, 0.218017578125, 0.2939453125, 0.28564453125, 0.24873046576976776, 0.2914062440395355, 0.21728515625, 0.2762695252895355, 0.3016113340854645, 0.29619142413139343, 0.29252931475639343, 0.2771972715854645, 0.260498046875, 0.2412109375, 0.3125976622104645, 0.26142579317092896, 0.2682128846645355, 0.3056640625, 0.30146485567092896, 0.3174804747104645, 0.2645019590854645, 0.27680665254592896, 0.259765625, 0.22758789360523224, 0.2721191346645355, 0.281494140625, 0.25146484375, 0.2802734375, 0.29155275225639343, 0.1875, 0.26752930879592896, 0.31000977754592896, 0.2508300840854645, 0.27460938692092896, 0.29389649629592896, 0.29155275225639343, 0.25932618975639343, 0.22968749701976776, 0.2779785096645355, 0.2861328125, 0.2646484375, 0.26318359375, 0.2818847596645355, 0.28911134600639343, 0.2776855528354645, 0.21420899033546448, 0.24448242783546448, 0.21401368081569672, 0.33012697100639343, 0.28095704317092896, 0.2525390684604645, 0.21450196206569672, 0.3246093690395355, 0.29594728350639343, 0.23994140326976776, 0.24545899033546448, 0.28413087129592896, 0.2655273377895355, 0.29399415850639343, 0.24995116889476776, 0.21645508706569672, 0.26337891817092896, 0.26630860567092896, 0.21757812798023224, 0.2879394590854645, 0.263916015625, 0.2699218690395355, 0.2630859315395355, 0.22236327826976776, 0.2583984434604645, 0.25927734375, 0.2593750059604645, 0.21625976264476776, 0.26542970538139343, 0.2813476622104645, 0.23471680283546448, 0.22905273735523224, 0.29838868975639343, 0.3050293028354645, 0.23388671875, 0.2962402403354645, 0.239013671875, 0.2506347596645355, 0.270751953125, 0.27202150225639343, 0.2943359315395355, 0.273681640625, 0.2618652284145355, 0.2898925840854645, 0.2864746153354645, 0.24628905951976776, 0.2527832090854645, 0.25883790850639343, 0.2953124940395355, 0.24941407144069672, 0.2532714903354645, 0.28374025225639343, 0.2904296815395355, 0.23110352456569672, 0.30927735567092896, 0.3162597715854645, 0.2650390565395355, 0.226806640625, 0.21079102158546448, 0.2732910215854645, 0.28300783038139343, 0.31586915254592896, 0.292236328125, 0.2939453125, 0.37934571504592896, 0.23251953721046448, 0.2511230409145355, 0.27299806475639343, 0.28583985567092896, 0.29931640625, 0.2586425840854645, 0.2566894590854645, 0.2503418028354645, 0.2604003846645355, 0.259765625, 0.26787111163139343, 0.23671875894069672, 0.31499025225639343, 0.30864259600639343, 0.2833496034145355, 0.21943359076976776, 0.24448242783546448, 0.26557618379592896, 0.2705078125, 0.2578125, 0.21142578125, 0.2632812559604645, 0.307373046875, 0.2564453184604645, 0.29296875, 0.2621093690395355, 0.2884277403354645, 0.22910156846046448, 0.26005861163139343, 0.3128418028354645, 0.26386719942092896, 0.31635743379592896, 0.30009767413139343, 0.2891601622104645, 0.3236328065395355, 0.3243164122104645, 0.2662109434604645, 0.2557617127895355, 0.3302246034145355, 0.2864746153354645, 0.2699218690395355, 0.32929688692092896, 0.28593751788139343, 0.2799316346645355, 0.21757812798023224, 0.22265625, 0.27387696504592896, 0.2984375059604645, 0.27827149629592896, 0.3009277284145355, 0.25761720538139343, 0.27958986163139343, 0.28046876192092896, 0.24116210639476776, 0.27885743975639343, 0.2830566465854645, 0.3323730528354645, 0.25556641817092896, 0.24233399331569672, 0.280517578125, 0.22622071206569672, 0.27299806475639343, 0.2786621153354645, 0.3389648497104645, 0.2723632752895355, 0.29936525225639343, 0.33173829317092896, 0.28081056475639343, 0.29267579317092896, 0.31376954913139343, 0.2608398497104645, 0.33881837129592896, 0.28999024629592896, 0.28999024629592896, 0.2691406309604645, 0.21337890625, 0.3219238221645355, 0.2596679627895355, 0.26274415850639343, 0.30830079317092896, 0.24594727158546448, 0.259765625, 0.3306640684604645, 0.30449220538139343, 0.2583984434604645, 0.21811524033546448, 0.2674316465854645, 0.23740234971046448, 0.28535157442092896, 0.304931640625, 0.290771484375, 0.33100587129592896, 0.24653320014476776, 0.30170899629592896, 0.27490234375, 0.32954102754592896, 0.23129883408546448, 0.2525390684604645, 0.2587890625, 0.24580077826976776, 0.25434571504592896, 0.30083009600639343, 0.28339844942092896, 0.22475586831569672, 0.28608399629592896, 0.30488282442092896, 0.3119140565395355, 0.2584472596645355, 0.31298828125, 0.29121094942092896, 0.3041015565395355, 0.27558594942092896, 0.307373046875, 0.31523439288139343, 0.23749999701976776, 0.3182617127895355, 0.26567384600639343, 0.30546876788139343, 0.26533204317092896, 0.259765625, 0.35200196504592896, 0.22714844346046448, 0.26567384600639343, 0.32329103350639343, 0.295166015625, 0.308349609375, 0.22890625894069672, 0.24086914956569672, 0.26591798663139343, 0.26030275225639343, 0.2542968690395355, 0.23959961533546448, 0.29594728350639343, 0.2559570372104645, 0.2923828065395355, 0.27094727754592896, 0.34003907442092896, 0.24565429985523224, 0.331298828125, 0.2972168028354645, 0.2579101622104645, 0.24189452826976776, 0.2740722596645355, 0.249755859375, 0.28862306475639343, 0.2793945372104645, 0.2730956971645355, 0.2823242247104645, 0.22709961235523224, 0.2914062440395355, 0.33452150225639343, 0.2864746153354645, 0.25, 0.25214844942092896, 0.2884765565395355, 0.27666017413139343, 0.276123046875, 0.300048828125, 0.23066405951976776, 0.3390136659145355, 0.24541015923023224, 0.25019532442092896, 0.2708496153354645, 0.261962890625, 0.2579589784145355, 0.25043946504592896, 0.2664550840854645, 0.3033203184604645, 0.26801759004592896, 0.2552734315395355, 0.27485352754592896, 0.25605469942092896, 0.29536134004592896, 0.2869628965854645, 0.23500977456569672, 0.27812501788139343, 0.22343750298023224, 0.29443359375, 0.26459962129592896, 0.2928222715854645, 0.2952636778354645, 0.3001464903354645, 0.261474609375, 0.267578125, 0.28813478350639343, 0.22861328721046448, 0.31328126788139343, 0.3152832090854645, 0.24897460639476776, 0.2886718809604645, 0.29584962129592896, 0.28901368379592896, 0.2820800840854645, 0.21845702826976776, 0.2710937559604645, 0.26933595538139343, 0.212158203125, 0.2555175721645355, 0.35053712129592896, 0.24897460639476776, 0.2978515625, 0.25263673067092896, 0.23002929985523224, 0.33613282442092896, 0.32441407442092896, 0.23598633706569672, 0.21547852456569672, 0.24672852456569672, 0.2505859434604645, 0.301513671875, 0.3177246153354645, 0.3180175721645355, 0.27250978350639343, 0.30375978350639343, 0.26860353350639343, 0.27680665254592896, 0.2887206971645355, 0.25312501192092896, 0.29052734375, 0.2716308534145355, 0.22700195014476776, 0.24521484971046448, 0.20493164658546448, 0.2870117127895355, 0.28999024629592896, 0.27197265625, 0.31352540850639343, 0.26337891817092896, 0.26708984375, 0.24086914956569672, 0.28520509600639343, 0.2687011659145355, 0.27070313692092896, 0.2997070252895355, 0.3282226622104645, 0.27509766817092896, 0.29033204913139343, 0.2574706971645355, 0.3296875059604645, 0.3340820372104645, 0.28242188692092896, 0.24506835639476776, 0.21440429985523224, 0.25786134600639343, 0.238525390625, 0.30815431475639343, 0.2716308534145355, 0.2554687559604645, 0.23876953125, 0.3121581971645355, 0.256591796875, 0.2723632752895355, 0.27778321504592896, 0.29692384600639343, 0.25126954913139343, 0.2880859375, 0.281982421875, 0.2945800721645355, 0.2825683653354645, 0.29096680879592896, 0.3045410215854645, 0.21831054985523224, 0.19658203423023224, 0.23666992783546448, 0.3001464903354645, 0.298583984375, 0.3075195252895355, 0.24433593451976776, 0.2972168028354645, 0.3167968690395355, 0.3150390684604645, 0.24912109971046448, 0.27934572100639343, 0.27314454317092896, 0.23642578721046448, 0.31611329317092896, 0.261962890625, 0.22260741889476776, 0.2887206971645355, 0.322998046875, 0.3113769590854645, 0.2554687559604645, 0.25688478350639343, 0.2764648497104645, 0.28349611163139343, 0.274658203125, 0.2584472596645355, 0.3475097715854645, 0.30927735567092896, 0.2862792909145355, 0.2728027403354645, 0.2938476502895355, 0.290771484375, 0.2923828065395355, 0.26005861163139343, 0.267578125, 0.25214844942092896, 0.2490234375, 0.2591796815395355, 0.27436524629592896, 0.28496095538139343, 0.2545410096645355, 0.2777343690395355, 0.3490234315395355, 0.2783203125, 0.26513671875, 0.2716308534145355, 0.24892579019069672, 0.2960449159145355, 0.2789062559604645, 0.3626464903354645, 0.23671875894069672, 0.347412109375, 0.2557617127895355, 0.27885743975639343, 0.3246093690395355, 0.3084960877895355, 0.3111328184604645, 0.2994628846645355, 0.3147949278354645, 0.271240234375, 0.2899414002895355, 0.2940429747104645, 0.3333984315395355, 0.27592775225639343, 0.2569824159145355, 0.24311523139476776, 0.33076173067092896, 0.23710937798023224, 0.24599610269069672, 0.2527832090854645, 0.3077636659145355, 0.3028808534145355, 0.3681640625, 0.24165038764476776, 0.26240235567092896, 0.271728515625, 0.3782714903354645, 0.26347658038139343, 0.22124023735523224, 0.2505859434604645, 0.2720703184604645, 0.2752441465854645, 0.2867675721645355, 0.30683594942092896, 0.266357421875, 0.3241210877895355, 0.30205079913139343, 0.2718749940395355, 0.2699218690395355, 0.26665040850639343, 0.32026368379592896, 0.28325197100639343, 0.25273439288139343, 0.21347656846046448, 0.29350587725639343, 0.2728027403354645, 0.22329102456569672, 0.30659180879592896, 0.20869140326976776, 0.3480468690395355, 0.20390625298023224, 0.3075195252895355, 0.24672852456569672, 0.32275390625, 0.27788087725639343, 0.3013671934604645, 0.26118165254592896, 0.31547853350639343, 0.2793945372104645, 0.3099121153354645, 0.23286132514476776, 0.2752929627895355, 0.24785156548023224, 0.23432616889476776, 0.27324220538139343, 0.20229493081569672, 0.2763671875, 0.31293946504592896, 0.25615236163139343, 0.2550292909145355, 0.33154296875, 0.333984375, 0.26933595538139343, 0.28007814288139343, 0.2911132872104645, 0.23457030951976776, 0.2975097596645355, 0.32036134600639343, 0.25908204913139343, 0.28046876192092896, 0.24379883706569672, 0.3075195252895355, 0.30561524629592896, 0.2520996034145355, 0.25224611163139343, 0.2767578065395355, 0.24858398735523224, 0.35014650225639343, 0.22651366889476776, 0.3184570372104645, 0.25385743379592896, 0.22939454019069672, 0.18671874701976776, 0.24985352158546448, 0.18735352158546448, 0.252197265625, 0.2605957090854645, 0.26079103350639343, 0.24970702826976776, 0.286865234375, 0.2918945252895355, 0.2643066346645355, 0.3006347715854645, 0.28398439288139343, 0.2962402403354645, 0.28544923663139343, 0.29145509004592896, 0.25361329317092896, 0.2638183534145355, 0.2669433653354645, 0.29072266817092896, 0.32568359375, 0.26103517413139343, 0.2928710877895355, 0.2718261778354645, 0.29130861163139343, 0.25932618975639343, 0.23115234076976776, 0.29267579317092896, 0.24897460639476776, 0.24746094644069672, 0.198974609375, 0.28056642413139343, 0.31464844942092896, 0.26679688692092896, 0.3395019471645355, 0.28071290254592896, 0.2921386659145355, 0.27958986163139343, 0.28559571504592896, 0.24956054985523224, 0.26542970538139343, 0.25068360567092896, 0.2965331971645355, 0.30195313692092896, 0.31982421875, 0.24282227456569672, 0.20708008110523224, 0.30473634600639343, 0.2784667909145355, 0.2646484375, 0.3099121153354645, 0.24619141221046448, 0.3023437559604645, 0.27226564288139343, 0.25981447100639343, 0.34077149629592896, 0.21176758408546448, 0.22690430283546448, 0.296875, 0.24306641519069672, 0.27338868379592896, 0.25102540850639343, 0.2986816465854645, 0.31342774629592896, 0.306640625, 0.2796874940395355, 0.238037109375, 0.22724609076976776, 0.28374025225639343, 0.24150390923023224, 0.3031249940395355, 0.254150390625, 0.3189453184604645, 0.3252929747104645, 0.3143554627895355, 0.25849610567092896, 0.318359375, 0.2872558534145355, 0.23295898735523224, 0.306640625, 0.273681640625, 0.22353516519069672, 0.29052734375, 0.2847656309604645, 0.25341796875, 0.2781738340854645, 0.2294921875, 0.3062500059604645, 0.2601562440395355, 0.2606445252895355, 0.2662109434604645, 0.30693361163139343, 0.2557128965854645, 0.3414550721645355, 0.29755860567092896, 0.275390625, 0.24833984673023224, 0.260986328125, 0.27192384004592896, 0.28203126788139343, 0.2662597596645355, 0.2596679627895355, 0.2525390684604645, 0.24575196206569672, 0.2789550721645355, 0.2811035215854645, 0.306640625, 0.29521486163139343, 0.24345703423023224, 0.25996094942092896, 0.3074707090854645, 0.2890625, 0.31450197100639343, 0.30908203125, 0.2711425721645355, 0.2679199278354645, 0.287841796875, 0.2843261659145355, 0.31440430879592896, 0.268310546875, 0.25239259004592896, 0.3233398497104645, 0.24711914360523224, 0.2831054627895355, 0.23862305283546448, 0.2769531309604645, 0.3014160096645355, 0.25859376788139343, 0.3038085997104645, 0.2914062440395355, 0.2813476622104645, 0.2806640565395355, 0.300537109375, 0.25410157442092896, 0.249267578125, 0.3082031309604645, 0.311767578125, 0.2909179627895355, 0.2586425840854645, 0.2833496034145355, 0.3336425721645355, 0.3299316465854645, 0.31230470538139343, 0.28007814288139343, 0.35107421875, 0.2679199278354645, 0.2740722596645355, 0.26884767413139343, 0.23095703125, 0.2748046815395355, 0.25117188692092896, 0.32866212725639343, 0.23969726264476776, 0.3230957090854645, 0.32270509004592896, 0.26372072100639343, 0.30170899629592896, 0.2630859315395355, 0.2682128846645355, 0.34370118379592896, 0.24379883706569672, 0.23471680283546448, 0.337158203125, 0.27265626192092896, 0.3291015625, 0.32207033038139343]","[10.9375, 7.59375, 7.375, 7.09375, 6.90625, 6.6875, 6.625, 6.6875, 6.40625, 6.15625, 6.125, 6.0625, 6.0625, 6.03125, 6.15625, 6.21875, 5.9375, 6.125, 6.03125, 5.90625, 6.34375, 5.75, 5.9375, 5.8125, 5.8125, 6.0, 5.875, 5.59375, 5.65625, 5.8125, 5.71875, 5.5625, 5.625, 5.65625, 5.375, 5.78125, 5.625, 5.5, 5.75, 5.59375, 5.75, 5.6875, 5.65625, 5.34375, 5.3125, 5.71875, 5.53125, 5.5, 5.46875, 5.5625, 5.375, 5.28125, 5.65625, 5.25, 5.25, 5.625, 5.4375, 5.5625, 5.40625, 5.3125, 5.125, 5.4375, 5.4375, 5.53125, 5.1875, 5.21875, 5.53125, 4.96875, 5.125, 5.09375, 5.09375, 4.78125, 5.40625, 5.15625, 5.15625, 5.25, 4.9375, 5.125, 4.84375, 4.875, 5.09375, 4.71875, 4.96875, 5.0625, 5.09375, 5.125, 5.0, 4.9375, 4.6875, 4.84375, 4.625, 4.96875, 4.8125, 4.84375, 4.8125, 4.875, 5.15625, 5.0, 4.75, 4.78125, 4.84375, 4.875, 4.46875, 4.53125, 4.8125, 4.78125, 4.46875, 4.71875, 4.65625, 4.5, 4.625, 4.71875, 4.65625, 4.65625, 4.78125, 4.625, 4.40625, 4.875, 4.78125, 4.65625, 4.84375, 4.4375, 4.625, 4.5625, 4.625, 4.4375, 4.6875, 4.6875, 4.65625, 4.4375, 4.6875, 4.71875, 4.46875, 4.625, 4.71875, 4.5625, 4.65625, 4.40625, 4.28125, 4.6875, 4.28125, 4.28125, 4.21875, 4.34375, 4.59375, 4.3125, 4.34375, 4.65625, 4.40625, 4.53125, 4.5625, 4.1875, 4.65625, 4.3125, 4.3125, 4.28125, 4.40625, 4.0625, 4.46875, 4.3125, 4.34375, 4.375, 4.0625, 4.375, 4.46875, 4.0625, 4.125, 4.40625, 4.25, 4.3125, 4.25, 4.59375, 4.375, 4.1875, 4.3125, 4.375, 4.28125, 4.15625, 4.15625, 4.25, 4.5625, 4.3125, 4.25, 4.4375, 4.21875, 3.984375, 4.25, 4.3125, 4.28125, 4.09375, 4.40625, 4.34375, 4.375, 4.09375, 4.4375, 4.25, 4.3125, 4.03125, 4.1875, 4.1875, 4.09375, 4.03125, 4.15625, 4.5625, 4.1875, 4.15625, 4.15625, 4.28125, 4.21875, 4.21875, 4.03125, 4.21875, 4.1875, 4.40625, 4.03125, 4.3125, 4.375, 4.09375, 4.0625, 4.0, 4.125, 3.984375, 4.21875, 4.0625, 4.09375, 4.1875, 4.28125, 4.03125, 3.890625, 4.0, 4.375, 4.125, 3.984375, 4.0, 4.09375, 4.28125, 4.0, 4.125, 4.09375, 3.984375, 4.3125, 4.0625, 3.828125, 4.09375, 4.09375, 4.15625, 3.953125, 4.25, 3.9375, 4.09375, 4.125, 3.96875, 4.15625, 3.875, 4.0, 4.0625, 3.796875, 4.03125, 3.859375, 4.09375, 4.21875, 3.96875, 4.25, 3.875, 4.0, 4.15625, 4.03125, 3.96875, 3.890625, 4.0, 3.6875, 3.9375, 4.1875, 4.25, 4.03125, 4.0625, 3.96875, 3.953125, 4.21875, 4.0, 4.15625, 3.921875, 4.09375, 3.953125, 4.1875, 3.78125, 4.25, 4.09375, 3.9375, 3.953125, 4.15625, 3.96875, 3.765625, 3.890625, 3.90625, 4.125, 4.0, 3.9375, 4.0625, 3.9375, 4.3125, 4.0, 4.0, 3.75, 4.125, 3.984375, 4.0, 3.953125, 4.15625, 3.921875, 4.09375, 4.0, 3.9375, 4.0625, 3.953125, 3.828125, 3.890625, 3.796875, 3.671875, 4.125, 4.09375, 3.859375, 3.96875, 3.875, 4.0625, 4.0, 3.8125, 3.9375, 4.15625, 4.0625, 4.25, 4.125, 4.125, 3.78125, 3.796875, 3.921875, 3.765625, 4.0625, 3.84375, 3.828125, 3.71875, 3.953125, 3.890625, 3.96875, 3.921875, 3.890625, 3.71875, 4.03125, 3.78125, 3.90625, 3.765625, 3.734375, 3.765625, 3.78125, 3.703125, 3.984375, 4.0, 3.84375, 3.71875, 3.953125, 3.90625, 3.796875, 3.65625, 3.875, 3.875, 3.59375, 3.90625, 4.1875, 4.125, 4.03125, 3.78125, 3.9375, 3.9375, 4.0, 3.796875, 3.59375, 3.703125, 3.78125, 3.9375, 3.890625, 3.78125, 3.828125, 4.0, 3.8125, 3.578125, 3.984375, 3.78125, 3.875, 4.125, 3.90625, 3.859375, 3.90625, 4.0625, 3.9375, 4.0625, 3.90625, 4.15625, 3.703125, 3.9375, 3.9375, 4.0625, 3.953125, 3.859375, 3.875, 3.796875, 3.9375, 3.859375, 3.8125, 3.6875, 3.734375, 3.9375, 3.734375, 4.21875, 3.640625, 3.90625, 3.921875, 3.625, 3.765625, 3.828125, 3.828125, 3.78125, 3.765625, 3.890625, 3.578125, 3.921875, 3.859375, 3.84375, 3.4375, 3.890625, 3.734375, 3.90625, 3.9375, 3.71875, 3.5625, 3.796875, 3.84375, 3.75, 3.84375, 3.84375, 3.921875, 3.8125, 3.859375, 3.90625, 3.828125, 3.984375, 4.09375, 3.875, 3.546875, 3.6875, 4.0, 3.65625, 4.125, 3.875, 3.640625, 3.78125, 3.734375, 4.0, 3.8125, 3.953125, 3.859375, 4.0, 3.953125, 3.671875, 3.640625, 3.625, 3.84375, 3.8125, 4.0, 3.875, 3.796875, 3.78125, 3.84375, 3.671875, 3.953125, 3.890625, 3.953125, 3.984375, 3.765625, 3.8125, 3.828125, 3.328125, 3.984375, 3.46875, 3.859375, 3.703125, 3.359375, 3.890625, 3.484375, 3.59375, 3.8125, 3.71875, 3.734375, 3.828125, 3.59375, 3.453125, 3.71875, 3.59375, 3.84375, 3.75, 3.9375, 3.515625, 3.921875, 3.734375, 3.453125, 3.671875, 3.875, 3.671875, 3.5, 3.765625, 3.78125, 3.90625, 3.703125, 3.625, 3.953125, 3.78125, 3.65625, 3.375, 3.65625, 3.796875, 3.609375, 3.65625, 3.8125, 3.859375, 3.734375, 3.6875, 3.515625, 3.796875, 3.578125, 3.609375, 3.890625, 3.65625, 3.703125, 3.65625, 3.796875, 3.46875, 3.875, 3.734375, 3.765625, 3.796875, 3.828125, 3.890625, 3.828125, 3.53125, 3.640625, 3.640625, 3.625, 3.625, 3.84375, 3.671875, 3.5625, 3.34375, 3.546875, 3.796875, 3.8125, 3.4375, 3.609375, 3.4375, 3.46875, 3.71875, 3.609375, 3.765625, 3.65625, 3.671875, 3.5625, 3.6875, 3.4375, 3.828125, 3.625, 3.765625, 3.484375, 3.578125, 3.4375, 3.484375, 3.703125, 3.8125, 3.4375, 3.578125, 3.734375, 3.9375, 3.515625, 3.890625, 3.390625, 3.59375, 3.703125, 3.421875, 3.671875, 3.71875, 3.734375, 3.6875, 3.515625, 3.859375, 3.734375, 3.828125, 3.9375, 3.828125, 3.703125, 3.59375, 3.765625, 3.359375, 3.671875, 3.625, 3.9375, 3.5625, 3.796875, 3.40625, 3.484375, 3.828125, 3.546875, 3.28125, 3.71875, 3.59375, 3.421875, 3.59375, 3.46875, 3.6875, 3.75, 3.625, 3.65625, 3.515625, 3.6875, 3.1875, 3.671875, 3.625, 3.734375, 3.65625, 3.671875, 3.75, 3.40625, 3.609375, 3.59375, 3.640625, 3.75, 3.703125, 3.5, 3.828125, 3.703125, 3.34375, 3.578125, 3.5, 3.671875, 3.375, 3.640625, 3.234375, 3.6875, 3.71875, 3.6875, 3.484375, 3.40625, 3.375, 3.703125, 3.640625, 3.8125, 3.53125, 3.5625, 3.640625, 3.734375, 3.515625, 3.65625, 3.359375, 3.703125, 3.640625, 4.03125, 3.296875, 3.53125, 4.125, 3.8125, 3.75, 3.921875, 3.71875, 3.71875, 3.78125, 3.640625, 3.921875, 3.6875, 3.625, 3.578125, 3.515625, 3.703125, 3.734375, 3.640625, 3.703125, 3.5, 3.5, 3.859375, 3.65625, 3.71875, 3.515625, 3.71875, 3.65625, 3.71875, 3.625, 3.9375, 3.71875, 3.484375, 3.8125, 3.5, 3.640625, 3.84375, 3.578125, 3.609375, 3.28125, 3.671875, 3.625, 3.78125, 3.875, 3.296875, 3.734375, 3.765625, 3.4375, 3.640625, 3.34375, 3.5, 3.6875, 3.6875, 3.3125, 3.3125, 3.546875, 3.6875, 3.609375, 3.65625, 3.71875, 3.359375, 3.59375, 3.65625, 3.390625, 3.8125, 3.859375, 3.328125, 3.609375, 3.65625, 3.5, 3.78125, 3.515625, 3.484375, 3.875, 3.90625, 3.890625, 3.75, 3.671875, 3.40625, 3.65625, 3.84375, 3.640625, 3.671875, 3.796875, 3.78125, 3.5, 3.65625, 3.6875, 3.53125, 3.625, 3.625, 3.578125, 3.65625, 3.703125, 3.546875, 3.5, 3.25, 3.5625, 3.5625, 3.59375, 3.75, 3.59375, 3.625, 3.28125, 3.625, 3.578125, 3.53125, 3.84375, 3.65625, 3.640625, 3.796875, 3.640625, 3.734375, 3.484375, 3.75, 3.5625, 3.5625, 3.5625, 3.625, 3.390625, 3.390625, 3.734375, 3.53125, 3.765625, 3.515625, 3.234375, 3.703125, 3.609375, 3.484375, 3.46875, 3.703125, 3.609375, 3.546875, 3.625, 3.546875, 3.6875, 3.640625, 3.703125, 3.46875, 3.875, 3.609375, 3.59375, 3.375, 3.6875, 3.796875, 3.6875, 3.65625, 3.453125, 3.40625, 3.6875, 4.0625, 3.90625, 3.4375, 3.3125, 3.6875, 3.9375, 3.375, 3.75, 3.328125, 3.8125, 3.765625, 3.578125, 3.671875, 3.484375, 3.671875, 3.65625, 3.5625, 3.734375, 3.46875, 3.390625, 3.8125, 3.40625, 3.53125, 3.734375, 3.390625, 3.71875, 3.34375, 3.265625, 3.6875, 3.609375, 3.78125, 3.515625, 3.4375, 3.53125, 3.53125, 3.15625, 3.625, 3.796875, 3.625, 3.703125, 3.59375, 3.359375, 3.578125, 3.4375, 3.640625, 3.609375, 3.6875, 3.484375, 3.609375, 3.5, 3.8125, 3.4375, 3.453125, 3.34375, 3.359375, 3.796875, 3.671875, 3.53125, 3.9375, 3.671875, 3.28125, 3.578125, 3.40625, 3.625, 3.578125, 3.578125, 3.625, 3.859375, 3.65625, 3.546875, 3.265625, 3.734375, 3.4375, 3.609375, 3.375, 3.375, 3.78125, 3.71875, 3.625, 3.8125, 3.640625, 3.265625, 3.4375, 3.46875, 3.359375, 3.59375, 3.609375, 3.859375, 3.578125, 3.640625, 3.46875, 3.59375, 3.34375, 3.46875, 3.28125, 3.578125, 3.390625, 3.328125, 3.5625, 3.296875, 3.75, 3.625, 3.125, 3.640625, 3.84375, 3.859375, 3.65625, 3.6875, 3.703125, 3.296875, 3.203125, 3.640625, 3.140625, 3.640625, 3.578125, 3.5625, 3.3125, 3.53125, 3.5625, 3.65625, 3.421875, 3.6875, 3.625, 3.421875, 3.546875, 3.515625, 3.515625, 3.359375, 3.4375, 3.234375, 3.640625, 3.53125, 3.453125, 3.53125, 3.4375, 3.265625, 3.5, 3.65625, 3.53125, 3.578125, 3.421875, 3.546875, 3.203125, 3.515625, 3.625, 3.46875, 3.1875, 3.453125, 3.203125, 3.46875, 3.375, 3.546875, 3.640625, 3.46875, 3.265625, 3.515625, 3.296875, 3.5, 3.34375, 3.46875, 3.59375, 3.375, 3.5, 3.34375, 3.328125, 3.328125, 3.765625, 3.671875, 3.625, 3.46875, 3.546875, 3.53125, 3.421875, 3.75, 3.703125, 3.46875, 3.375, 3.484375, 3.4375, 3.5, 3.4375, 3.609375, 3.40625, 3.296875, 3.609375, 3.59375, 3.53125, 3.375, 3.453125, 3.484375, 3.5, 3.265625, 3.34375, 3.578125, 3.453125, 3.5, 3.609375, 3.46875, 3.59375, 3.578125, 3.453125, 3.4375, 3.53125, 3.515625, 3.265625, 3.40625, 3.328125, 3.53125, 3.5625, 3.5, 3.265625, 3.515625, 3.265625, 3.421875, 3.46875, 3.71875, 3.4375, 3.484375, 3.78125, 3.390625, 3.546875, 3.53125, 3.40625, 3.375, 3.46875, 3.5625, 3.78125, 3.390625, 3.421875, 3.609375, 3.421875, 3.359375, 3.5, 3.765625, 3.71875, 3.484375, 3.40625, 3.359375, 3.5, 3.328125, 3.46875, 3.5625, 3.734375, 3.546875, 3.53125, 3.578125, 3.296875, 3.53125, 3.84375, 3.5, 3.4375, 3.296875, 3.375, 3.609375, 3.25, 3.421875, 3.515625, 3.484375, 3.125, 3.578125, 3.5, 3.4375, 3.765625, 3.328125, 3.5, 3.46875, 3.265625, 3.390625, 3.296875, 3.46875, 3.765625, 3.40625, 3.21875, 3.46875, 3.3125, 3.609375, 3.453125, 3.484375, 3.625, 3.375, 3.484375, 3.359375, 3.359375, 3.4375, 3.375, 3.515625, 3.390625, 3.46875, 3.671875, 3.8125, 3.34375, 3.46875, 3.5, 3.078125, 3.25, 3.3125, 3.296875, 3.4375, 3.375, 3.46875, 3.421875, 3.484375, 3.34375, 3.40625, 3.578125, 3.703125, 3.5, 3.421875, 3.53125, 3.5, 3.421875, 3.53125, 3.421875, 3.609375, 3.421875, 3.671875, 3.375, 3.40625, 3.296875, 3.53125, 3.515625, 3.421875, 3.375, 3.46875, 3.53125, 3.578125, 3.484375, 3.421875, 3.59375, 3.703125, 3.390625, 3.5625, 3.59375, 3.3125, 3.53125, 3.515625, 3.375, 3.28125, 3.65625, 3.421875, 3.703125, 3.265625, 3.59375, 3.546875, 3.5625, 3.65625, 3.25, 3.234375, 3.453125, 3.359375, 3.625, 3.40625, 3.359375, 3.578125, 3.578125, 3.390625, 3.640625, 3.53125, 3.15625, 3.5, 3.1875, 3.375, 3.53125, 3.71875, 3.375, 3.578125, 3.34375, 3.421875, 3.546875, 3.28125, 3.390625, 3.28125, 3.453125, 3.453125, 3.671875, 3.671875, 3.71875, 3.5625, 3.640625, 3.6875, 3.703125, 3.6875, 3.59375, 3.328125, 3.640625, 3.390625, 3.3125, 3.390625, 3.640625, 3.40625, 3.375, 3.53125, 3.421875, 3.28125, 3.328125, 3.40625, 3.65625, 3.34375, 3.734375, 3.390625, 3.34375, 3.609375, 3.25, 3.25, 3.40625, 3.375, 3.53125, 3.46875, 3.359375, 3.359375, 3.546875, 3.328125, 3.328125, 3.46875, 3.328125, 3.484375, 3.53125, 3.46875, 3.5625, 3.53125, 3.34375, 3.34375, 3.234375, 3.328125, 3.421875, 3.671875, 3.453125, 3.40625, 3.53125, 3.4375, 3.53125, 3.734375, 3.546875, 3.3125, 3.234375, 3.203125, 3.546875, 3.5, 3.265625, 3.25, 3.609375, 3.515625, 3.546875, 3.46875, 3.21875, 3.3125, 3.390625, 3.484375, 3.59375, 3.4375, 3.4375, 3.5, 3.421875, 3.671875, 3.625, 3.78125, 3.390625, 3.234375, 3.34375, 3.296875, 3.5, 3.734375, 3.421875, 3.53125, 3.390625, 3.296875, 3.453125, 3.390625, 3.546875, 3.390625, 3.640625, 3.25, 3.5625, 3.359375, 3.640625, 3.015625, 3.171875, 3.4375, 3.375, 3.28125, 3.296875, 3.40625, 3.421875, 3.328125, 3.46875, 3.46875, 2.875, 3.40625, 3.46875, 3.578125, 3.03125, 3.46875, 3.40625, 3.296875, 3.546875, 3.390625, 3.40625, 3.4375, 3.5625, 3.421875, 3.34375, 3.453125, 3.5, 3.375, 3.46875, 3.28125, 3.578125, 3.34375, 3.265625, 3.453125, 3.359375, 3.3125, 3.53125, 3.171875, 3.59375, 3.609375, 3.546875, 3.453125, 3.3125, 3.84375, 3.203125, 3.515625, 3.25, 3.484375, 3.28125, 3.328125, 3.453125, 3.421875, 3.25, 3.21875, 3.703125, 3.359375, 3.5, 3.65625, 3.484375, 3.5, 3.390625, 3.3125, 3.640625, 3.4375, 3.421875, 3.34375, 3.375, 3.25, 3.390625, 3.59375, 3.25, 3.203125, 3.390625, 3.1875, 3.40625, 3.546875, 3.125, 3.59375, 3.40625, 3.296875, 3.234375, 3.140625, 3.46875, 3.46875, 3.578125, 3.53125, 3.8125, 3.296875, 3.390625, 3.25, 3.140625, 3.359375, 3.40625, 3.578125, 3.359375, 3.0625, 3.390625, 3.59375, 3.53125, 3.515625, 3.5, 3.28125, 3.328125, 3.515625, 3.3125, 3.546875, 3.296875, 3.1875, 3.203125, 3.4375, 3.59375, 3.09375, 3.484375, 2.96875, 3.609375, 3.53125, 3.390625, 3.359375, 3.015625, 3.359375, 3.6875, 3.34375, 3.296875, 3.3125, 3.203125, 3.484375, 3.265625, 3.203125, 3.171875, 3.515625, 3.375, 3.59375, 3.328125, 3.359375, 3.5, 3.171875, 3.421875, 3.609375, 3.265625, 3.359375, 3.4375, 3.3125, 3.671875, 3.375, 3.359375, 3.140625, 3.578125, 3.5625, 3.46875, 3.40625, 3.375, 3.71875, 3.3125, 3.453125, 3.34375, 3.4375, 3.625, 3.453125, 3.328125, 3.203125, 3.34375, 3.609375, 3.21875, 3.609375, 3.359375, 3.203125, 3.296875, 3.0, 3.359375, 3.03125, 3.4375, 3.140625, 3.578125, 3.46875, 3.078125, 3.546875, 3.140625, 3.421875, 3.625, 3.3125, 3.640625, 3.46875, 3.390625, 3.375, 3.40625, 3.28125, 3.296875, 3.28125, 3.46875, 2.96875, 3.28125, 3.328125, 3.40625, 3.21875, 3.4375, 3.359375, 3.140625, 3.421875, 3.453125, 3.546875, 3.28125, 3.328125, 3.296875, 2.96875, 3.21875, 3.359375, 3.515625, 3.25, 3.515625, 3.4375, 3.46875, 3.5625, 3.296875, 3.15625, 3.328125, 3.546875, 3.203125, 3.390625, 3.1875, 3.484375, 3.484375, 3.40625, 3.40625, 3.296875, 3.46875, 3.390625, 3.3125, 3.5, 3.109375, 3.34375, 3.359375, 3.546875, 3.3125, 3.375, 3.234375, 3.515625, 3.28125, 3.453125, 3.421875, 3.390625, 3.390625, 3.296875, 3.609375, 3.46875, 3.421875, 3.28125, 3.5, 3.328125, 3.484375, 3.375, 3.3125, 3.484375, 3.453125, 3.40625, 3.203125, 3.296875, 3.203125, 3.4375, 3.28125, 3.546875, 3.5625, 2.875, 3.546875, 3.25, 3.40625, 3.5, 3.296875, 3.890625, 3.375, 3.5, 3.296875, 3.203125, 3.328125, 3.6875, 3.53125, 3.390625, 3.34375, 3.34375, 3.21875, 3.40625, 3.34375, 3.25, 3.421875, 3.25, 3.234375, 3.609375, 3.34375, 3.203125, 3.296875, 3.5, 3.6875, 3.140625, 3.515625, 3.375, 3.203125, 3.34375, 3.421875, 3.390625, 3.578125, 3.53125, 3.1875, 3.203125, 3.15625, 3.375, 3.359375, 3.375, 3.421875, 3.40625, 3.203125, 3.1875, 3.34375, 3.3125, 3.25, 3.203125, 3.546875, 3.296875, 3.3125, 3.234375, 3.265625, 3.65625, 3.21875, 3.34375, 3.1875, 3.5, 3.390625, 3.28125, 3.59375, 3.328125, 3.578125, 3.265625, 3.390625, 3.328125, 3.234375, 3.34375, 3.234375, 3.421875, 3.25, 3.484375, 3.328125, 3.09375, 2.9375, 3.3125, 3.5, 3.25, 3.46875, 3.390625, 3.171875, 3.234375, 3.34375, 3.265625, 3.234375, 3.453125, 3.171875, 3.6875, 3.265625, 3.28125, 3.28125, 3.28125, 3.234375, 3.375, 3.078125, 3.203125, 3.40625, 3.125, 3.296875, 3.359375, 3.296875, 3.6875, 3.21875, 3.296875, 3.5, 3.46875, 3.4375, 3.078125, 3.203125, 3.5, 3.5, 3.703125, 3.609375, 3.4375, 3.390625, 3.40625, 3.328125, 3.84375, 3.34375, 3.296875, 3.078125, 3.375, 3.40625, 3.4375, 3.40625, 3.171875, 3.375, 3.609375, 3.375, 3.390625, 3.234375, 3.25, 3.453125, 3.203125, 3.34375, 3.21875, 3.5, 3.234375, 3.46875, 3.453125, 3.28125, 3.515625, 3.171875, 3.09375, 3.703125, 3.453125, 3.40625, 3.609375, 3.71875, 3.4375, 3.46875, 3.421875, 3.5, 3.4375, 3.421875, 3.328125, 3.46875, 3.484375, 3.296875, 3.109375, 3.4375, 3.15625, 3.21875, 3.421875, 3.578125, 3.1875, 2.921875, 3.375, 3.53125, 3.46875, 3.328125, 3.25, 3.140625, 3.546875, 3.328125, 3.171875, 3.3125, 3.359375, 3.6875, 3.28125, 3.46875, 3.578125, 3.515625, 3.3125, 3.359375, 3.21875, 3.15625, 3.453125, 3.484375, 3.203125, 3.328125, 3.546875, 3.328125, 3.25, 3.140625, 3.171875, 3.265625, 3.3125, 3.34375, 3.203125, 3.078125, 3.390625, 3.203125, 3.21875, 3.390625, 3.390625, 3.40625, 3.546875, 3.40625, 3.28125, 3.71875, 3.140625, 3.390625, 3.484375, 3.28125, 3.265625, 3.4375, 3.03125, 3.171875, 2.953125, 3.46875, 3.390625, 3.40625, 3.484375, 3.265625, 3.46875, 3.53125, 3.140625, 3.625, 2.9375, 3.203125, 3.5, 3.421875, 3.28125, 3.25, 3.34375, 2.90625, 3.109375, 3.5, 3.359375, 3.375, 3.140625, 3.0, 3.4375, 3.21875, 3.0625, 3.09375, 3.328125, 3.328125, 3.484375, 3.3125, 3.453125, 3.328125, 3.375, 3.53125, 3.140625, 3.125, 3.359375, 3.421875, 3.4375, 3.234375, 3.40625, 3.546875, 3.15625, 2.984375, 3.453125, 3.390625, 3.171875, 3.390625, 3.609375, 3.359375, 3.296875, 3.515625, 3.125, 3.328125, 3.25, 3.28125, 3.328125, 3.34375, 3.453125, 3.390625, 3.359375, 3.484375, 3.359375, 3.4375, 3.125, 3.296875, 3.4375, 3.3125, 3.078125, 3.0625, 3.21875, 3.15625, 3.375, 3.125, 3.46875, 3.5, 3.21875, 3.015625, 3.234375, 3.3125, 3.484375, 3.515625, 3.265625, 3.25, 3.265625, 3.296875, 3.375, 3.171875, 3.28125, 3.359375, 3.09375, 3.21875, 3.21875, 3.40625, 3.125, 3.21875, 3.328125, 3.265625, 3.375, 3.203125, 3.109375, 3.25, 3.140625, 2.953125, 3.46875, 3.5, 3.53125, 3.390625, 3.421875, 3.234375, 3.171875, 3.34375, 3.40625, 3.328125, 2.953125, 3.140625, 3.34375, 3.140625, 3.515625, 3.390625, 3.546875, 3.265625, 3.421875, 3.3125, 3.453125, 3.203125, 3.1875, 3.28125, 3.5625, 3.265625, 3.3125, 3.265625, 3.5625, 3.515625, 3.25, 3.375, 3.15625, 2.921875, 3.203125, 3.203125, 3.390625, 3.46875, 3.0, 3.34375, 3.359375, 3.234375, 3.5625, 3.140625, 3.34375, 3.34375, 3.421875, 3.59375, 3.375, 3.171875, 3.109375, 3.234375, 3.125, 3.265625, 3.46875, 3.359375, 3.21875, 3.25, 3.46875, 3.3125, 3.453125, 3.359375, 3.328125, 3.359375, 3.1875, 3.34375, 3.359375, 3.546875, 3.4375, 3.328125, 3.421875, 3.3125, 3.0625, 3.3125, 3.359375, 3.171875, 3.109375, 3.765625, 3.796875, 3.234375, 3.484375, 3.25, 3.234375, 3.53125, 3.359375, 3.296875, 3.15625, 2.953125, 3.484375, 3.03125, 3.53125, 3.421875, 3.21875, 3.328125, 3.375, 3.34375, 3.21875, 3.125, 3.375, 3.265625, 3.28125, 3.640625, 3.375, 2.921875, 3.03125, 3.296875, 3.59375, 3.453125, 3.3125, 3.3125, 3.265625, 3.421875, 3.359375, 3.453125, 3.34375, 3.28125, 3.25, 3.25, 3.34375, 3.390625, 3.21875, 3.296875, 3.546875, 3.390625, 3.3125, 3.09375, 3.328125, 3.515625, 3.171875, 3.28125, 3.265625, 3.46875, 3.09375, 3.171875, 3.546875, 3.171875, 3.453125, 3.3125, 3.375, 3.1875, 3.140625, 3.640625, 3.328125, 3.34375, 3.03125, 3.234375, 3.3125, 3.1875, 3.390625, 3.1875, 3.453125, 3.0625, 3.390625, 3.375, 3.421875, 3.328125, 3.328125, 3.28125, 3.421875, 3.15625, 3.171875, 3.484375, 3.375, 3.296875, 3.171875, 3.296875, 3.03125, 3.203125, 3.046875, 3.203125, 3.390625, 3.34375, 3.3125, 3.078125, 3.59375, 3.5, 2.921875, 3.1875, 3.125, 3.0, 3.4375, 3.203125, 3.53125, 3.34375, 3.234375, 3.1875, 3.140625, 3.453125, 3.171875, 3.328125, 3.609375, 3.3125, 2.90625, 2.625, 3.3125, 2.90625, 3.046875, 3.21875, 3.203125, 3.1875, 3.359375, 3.125, 3.046875, 3.40625, 3.21875, 3.609375, 3.125, 3.0625, 3.328125, 3.046875, 3.125, 3.265625, 3.421875, 3.171875, 3.15625, 3.28125, 3.453125, 3.578125, 3.1875, 3.1875, 3.078125, 3.34375, 3.234375, 3.4375, 3.265625, 3.0625, 3.1875, 3.421875, 3.1875, 3.125, 3.40625, 3.046875, 3.046875, 3.203125, 3.5, 3.1875, 3.5, 3.453125, 3.1875, 3.234375, 3.40625, 3.3125, 3.3125, 3.25, 3.09375, 3.265625, 3.125, 3.234375, 3.125, 3.03125, 3.203125, 3.03125, 3.375, 3.078125, 3.34375, 3.28125, 3.5, 3.203125, 3.046875, 3.15625, 3.328125, 3.28125, 3.28125, 3.28125, 3.375, 3.40625, 3.25, 3.3125, 3.1875, 2.984375, 3.265625, 3.109375, 3.34375, 3.28125, 3.359375, 3.15625, 3.046875, 3.46875, 3.203125, 2.96875, 3.140625, 3.34375, 3.296875, 3.484375, 3.40625, 3.375, 3.21875, 3.203125, 3.015625, 3.25, 3.015625, 3.28125, 3.25, 3.453125, 3.21875, 3.28125, 3.21875, 3.296875, 3.375, 3.359375, 3.28125, 3.078125, 3.21875, 2.890625, 3.140625, 3.0, 3.390625, 3.46875, 3.46875, 3.375, 3.265625, 3.09375, 3.203125, 3.390625, 3.140625, 3.546875, 3.28125, 3.203125, 3.03125, 3.28125, 3.125, 3.46875, 3.328125, 3.59375, 3.234375, 3.34375, 3.25, 3.5, 3.296875, 3.40625, 3.265625, 3.234375, 3.234375, 3.28125, 3.3125, 3.34375, 2.875, 3.296875, 3.296875, 3.375, 3.0625, 3.34375, 3.171875, 3.203125, 3.203125, 3.3125, 3.390625, 3.078125, 3.15625, 3.046875, 2.8125, 3.1875, 2.84375, 3.359375, 3.09375, 3.203125, 3.375, 3.4375]","[56320.0, 1992.0, 1600.0, 1208.0, 1000.0, 804.0, 756.0, 804.0, 608.0, 472.0, 458.0, 430.0, 430.0, 416.0, 472.0, 502.0, 380.0, 458.0, 416.0, 368.0, 568.0, 314.0, 380.0, 334.0, 334.0, 404.0, 356.0, 270.0, 286.0, 334.0, 304.0, 260.0, 278.0, 286.0, 216.0, 324.0, 278.0, 245.0, 314.0, 270.0, 314.0, 296.0, 286.0, 209.0, 203.0, 304.0, 253.0, 245.0, 237.0, 260.0, 216.0, 197.0, 286.0, 191.0, 191.0, 278.0, 230.0, 260.0, 223.0, 203.0, 168.0, 230.0, 230.0, 253.0, 179.0, 185.0, 253.0, 144.0, 168.0, 163.0, 163.0, 119.5, 223.0, 174.0, 174.0, 191.0, 140.0, 168.0, 127.0, 131.0, 163.0, 112.0, 144.0, 158.0, 163.0, 168.0, 149.0, 140.0, 108.5, 127.0, 102.0, 144.0, 123.0, 127.0, 123.0, 131.0, 174.0, 149.0, 115.5, 119.5, 127.0, 131.0, 87.5, 93.0, 123.0, 119.5, 87.5, 112.0, 105.5, 90.0, 102.0, 112.0, 105.5, 105.5, 119.5, 102.0, 82.0, 131.0, 119.5, 105.5, 127.0, 84.5, 102.0, 96.0, 102.0, 84.5, 108.5, 108.5, 105.5, 84.5, 108.5, 112.0, 87.5, 102.0, 112.0, 96.0, 105.5, 82.0, 72.5, 108.5, 72.5, 72.5, 68.0, 77.0, 99.0, 74.5, 77.0, 105.5, 82.0, 93.0, 96.0, 66.0, 105.5, 74.5, 74.5, 72.5, 82.0, 58.25, 87.5, 74.5, 77.0, 79.5, 58.25, 79.5, 87.5, 58.25, 62.0, 82.0, 70.0, 74.5, 70.0, 99.0, 79.5, 66.0, 74.5, 79.5, 72.5, 64.0, 64.0, 70.0, 96.0, 74.5, 70.0, 84.5, 68.0, 53.75, 70.0, 74.5, 72.5, 60.0, 82.0, 77.0, 79.5, 60.0, 84.5, 70.0, 74.5, 56.25, 66.0, 66.0, 60.0, 56.25, 64.0, 96.0, 66.0, 64.0, 64.0, 72.5, 68.0, 68.0, 56.25, 68.0, 66.0, 82.0, 56.25, 74.5, 79.5, 60.0, 58.25, 54.75, 62.0, 53.75, 68.0, 58.25, 60.0, 66.0, 72.5, 56.25, 49.0, 54.75, 79.5, 62.0, 53.75, 54.75, 60.0, 72.5, 54.75, 62.0, 60.0, 53.75, 74.5, 58.25, 46.0, 60.0, 60.0, 64.0, 52.25, 70.0, 51.25, 60.0, 62.0, 53.0, 64.0, 48.25, 54.75, 58.25, 44.5, 56.25, 47.5, 60.0, 68.0, 53.0, 70.0, 48.25, 54.75, 64.0, 56.25, 53.0, 49.0, 54.75, 40.0, 51.25, 66.0, 70.0, 56.25, 58.25, 53.0, 52.25, 68.0, 54.75, 64.0, 50.5, 60.0, 52.25, 66.0, 44.0, 70.0, 60.0, 51.25, 52.25, 64.0, 53.0, 43.25, 49.0, 49.75, 62.0, 54.75, 51.25, 58.25, 51.25, 74.5, 54.75, 54.75, 42.5, 62.0, 53.75, 54.75, 52.25, 64.0, 50.5, 60.0, 54.75, 51.25, 58.25, 52.25, 46.0, 49.0, 44.5, 39.25, 62.0, 60.0, 47.5, 53.0, 48.25, 58.25, 54.75, 45.25, 51.25, 64.0, 58.25, 70.0, 62.0, 62.0, 44.0, 44.5, 50.5, 43.25, 58.25, 46.75, 46.0, 41.25, 52.25, 49.0, 53.0, 50.5, 49.0, 41.25, 56.25, 44.0, 49.75, 43.25, 42.0, 43.25, 44.0, 40.5, 53.75, 54.75, 46.75, 41.25, 52.25, 49.75, 44.5, 38.75, 48.25, 48.25, 36.5, 49.75, 66.0, 62.0, 56.25, 44.0, 51.25, 51.25, 54.75, 44.5, 36.5, 40.5, 44.0, 51.25, 49.0, 44.0, 46.0, 54.75, 45.25, 35.75, 53.75, 44.0, 48.25, 62.0, 49.75, 47.5, 49.75, 58.25, 51.25, 58.25, 49.75, 64.0, 40.5, 51.25, 51.25, 58.25, 52.25, 47.5, 48.25, 44.5, 51.25, 47.5, 45.25, 40.0, 42.0, 51.25, 42.0, 68.0, 38.25, 49.75, 50.5, 37.5, 43.25, 46.0, 46.0, 44.0, 43.25, 49.0, 35.75, 50.5, 47.5, 46.75, 31.125, 49.0, 42.0, 49.75, 51.25, 41.25, 35.25, 44.5, 46.75, 42.5, 46.75, 46.75, 50.5, 45.25, 47.5, 49.75, 46.0, 53.75, 60.0, 48.25, 34.75, 40.0, 54.75, 38.75, 62.0, 48.25, 38.25, 44.0, 42.0, 54.75, 45.25, 52.25, 47.5, 54.75, 52.25, 39.25, 38.25, 37.5, 46.75, 45.25, 54.75, 48.25, 44.5, 44.0, 46.75, 39.25, 52.25, 49.0, 52.25, 53.75, 43.25, 45.25, 46.0, 27.875, 53.75, 32.0, 47.5, 40.5, 28.75, 49.0, 32.5, 36.5, 45.25, 41.25, 42.0, 46.0, 36.5, 31.625, 41.25, 36.5, 46.75, 42.5, 51.25, 33.75, 50.5, 42.0, 31.625, 39.25, 48.25, 39.25, 33.25, 43.25, 44.0, 49.75, 40.5, 37.5, 52.25, 44.0, 38.75, 29.25, 38.75, 44.5, 37.0, 38.75, 45.25, 47.5, 42.0, 40.0, 33.75, 44.5, 35.75, 37.0, 49.0, 38.75, 40.5, 38.75, 44.5, 32.0, 48.25, 42.0, 43.25, 44.5, 46.0, 49.0, 46.0, 34.25, 38.25, 38.25, 37.5, 37.5, 46.75, 39.25, 35.25, 28.375, 34.75, 44.5, 45.25, 31.125, 37.0, 31.125, 32.0, 41.25, 37.0, 43.25, 38.75, 39.25, 35.25, 40.0, 31.125, 46.0, 37.5, 43.25, 32.5, 35.75, 31.125, 32.5, 40.5, 45.25, 31.125, 35.75, 42.0, 51.25, 33.75, 49.0, 29.75, 36.5, 40.5, 30.625, 39.25, 41.25, 42.0, 40.0, 33.75, 47.5, 42.0, 46.0, 51.25, 46.0, 40.5, 36.5, 43.25, 28.75, 39.25, 37.5, 51.25, 35.25, 44.5, 30.125, 32.5, 46.0, 34.75, 26.625, 41.25, 36.5, 30.625, 36.5, 32.0, 40.0, 42.5, 37.5, 38.75, 33.75, 40.0, 24.25, 39.25, 37.5, 42.0, 38.75, 39.25, 42.5, 30.125, 37.0, 36.5, 38.25, 42.5, 40.5, 33.25, 46.0, 40.5, 28.375, 35.75, 33.25, 39.25, 29.25, 38.25, 25.375, 40.0, 41.25, 40.0, 32.5, 30.125, 29.25, 40.5, 38.25, 45.25, 34.25, 35.25, 38.25, 42.0, 33.75, 38.75, 28.75, 40.5, 38.25, 56.25, 27.0, 34.25, 62.0, 45.25, 42.5, 50.5, 41.25, 41.25, 44.0, 38.25, 50.5, 40.0, 37.5, 35.75, 33.75, 40.5, 42.0, 38.25, 40.5, 33.25, 33.25, 47.5, 38.75, 41.25, 33.75, 41.25, 38.75, 41.25, 37.5, 51.25, 41.25, 32.5, 45.25, 33.25, 38.25, 46.75, 35.75, 37.0, 26.625, 39.25, 37.5, 44.0, 48.25, 27.0, 42.0, 43.25, 31.125, 38.25, 28.375, 33.25, 40.0, 40.0, 27.5, 27.5, 34.75, 40.0, 37.0, 38.75, 41.25, 28.75, 36.5, 38.75, 29.75, 45.25, 47.5, 27.875, 37.0, 38.75, 33.25, 44.0, 33.75, 32.5, 48.25, 49.75, 49.0, 42.5, 39.25, 30.125, 38.75, 46.75, 38.25, 39.25, 44.5, 44.0, 33.25, 38.75, 40.0, 34.25, 37.5, 37.5, 35.75, 38.75, 40.5, 34.75, 33.25, 25.75, 35.25, 35.25, 36.5, 42.5, 36.5, 37.5, 26.625, 37.5, 35.75, 34.25, 46.75, 38.75, 38.25, 44.5, 38.25, 42.0, 32.5, 42.5, 35.25, 35.25, 35.25, 37.5, 29.75, 29.75, 42.0, 34.25, 43.25, 33.75, 25.375, 40.5, 37.0, 32.5, 32.0, 40.5, 37.0, 34.75, 37.5, 34.75, 40.0, 38.25, 40.5, 32.0, 48.25, 37.0, 36.5, 29.25, 40.0, 44.5, 40.0, 38.75, 31.625, 30.125, 40.0, 58.25, 49.75, 31.125, 27.5, 40.0, 51.25, 29.25, 42.5, 27.875, 45.25, 43.25, 35.75, 39.25, 32.5, 39.25, 38.75, 35.25, 42.0, 32.0, 29.75, 45.25, 30.125, 34.25, 42.0, 29.75, 41.25, 28.375, 26.25, 40.0, 37.0, 44.0, 33.75, 31.125, 34.25, 34.25, 23.5, 37.5, 44.5, 37.5, 40.5, 36.5, 28.75, 35.75, 31.125, 38.25, 37.0, 40.0, 32.5, 37.0, 33.25, 45.25, 31.125, 31.625, 28.375, 28.75, 44.5, 39.25, 34.25, 51.25, 39.25, 26.625, 35.75, 30.125, 37.5, 35.75, 35.75, 37.5, 47.5, 38.75, 34.75, 26.25, 42.0, 31.125, 37.0, 29.25, 29.25, 44.0, 41.25, 37.5, 45.25, 38.25, 26.25, 31.125, 32.0, 28.75, 36.5, 37.0, 47.5, 35.75, 38.25, 32.0, 36.5, 28.375, 32.0, 26.625, 35.75, 29.75, 27.875, 35.25, 27.0, 42.5, 37.5, 22.75, 38.25, 46.75, 47.5, 38.75, 40.0, 40.5, 27.0, 24.625, 38.25, 23.125, 38.25, 35.75, 35.25, 27.5, 34.25, 35.25, 38.75, 30.625, 40.0, 37.5, 30.625, 34.75, 33.75, 33.75, 28.75, 31.125, 25.375, 38.25, 34.25, 31.625, 34.25, 31.125, 26.25, 33.25, 38.75, 34.25, 35.75, 30.625, 34.75, 24.625, 33.75, 37.5, 32.0, 24.25, 31.625, 24.625, 32.0, 29.25, 34.75, 38.25, 32.0, 26.25, 33.75, 27.0, 33.25, 28.375, 32.0, 36.5, 29.25, 33.25, 28.375, 27.875, 27.875, 43.25, 39.25, 37.5, 32.0, 34.75, 34.25, 30.625, 42.5, 40.5, 32.0, 29.25, 32.5, 31.125, 33.25, 31.125, 37.0, 30.125, 27.0, 37.0, 36.5, 34.25, 29.25, 31.625, 32.5, 33.25, 26.25, 28.375, 35.75, 31.625, 33.25, 37.0, 32.0, 36.5, 35.75, 31.625, 31.125, 34.25, 33.75, 26.25, 30.125, 27.875, 34.25, 35.25, 33.25, 26.25, 33.75, 26.25, 30.625, 32.0, 41.25, 31.125, 32.5, 44.0, 29.75, 34.75, 34.25, 30.125, 29.25, 32.0, 35.25, 44.0, 29.75, 30.625, 37.0, 30.625, 28.75, 33.25, 43.25, 41.25, 32.5, 30.125, 28.75, 33.25, 27.875, 32.0, 35.25, 42.0, 34.75, 34.25, 35.75, 27.0, 34.25, 46.75, 33.25, 31.125, 27.0, 29.25, 37.0, 25.75, 30.625, 33.75, 32.5, 22.75, 35.75, 33.25, 31.125, 43.25, 27.875, 33.25, 32.0, 26.25, 29.75, 27.0, 32.0, 43.25, 30.125, 25.0, 32.0, 27.5, 37.0, 31.625, 32.5, 37.5, 29.25, 32.5, 28.75, 28.75, 31.125, 29.25, 33.75, 29.75, 32.0, 39.25, 45.25, 28.375, 32.0, 33.25, 21.75, 25.75, 27.5, 27.0, 31.125, 29.25, 32.0, 30.625, 32.5, 28.375, 30.125, 35.75, 40.5, 33.25, 30.625, 34.25, 33.25, 30.625, 34.25, 30.625, 37.0, 30.625, 39.25, 29.25, 30.125, 27.0, 34.25, 33.75, 30.625, 29.25, 32.0, 34.25, 35.75, 32.5, 30.625, 36.5, 40.5, 29.75, 35.25, 36.5, 27.5, 34.25, 33.75, 29.25, 26.625, 38.75, 30.625, 40.5, 26.25, 36.5, 34.75, 35.25, 38.75, 25.75, 25.375, 31.625, 28.75, 37.5, 30.125, 28.75, 35.75, 35.75, 29.75, 38.25, 34.25, 23.5, 33.25, 24.25, 29.25, 34.25, 41.25, 29.25, 35.75, 28.375, 30.625, 34.75, 26.625, 29.75, 26.625, 31.625, 31.625, 39.25, 39.25, 41.25, 35.25, 38.25, 40.0, 40.5, 40.0, 36.5, 27.875, 38.25, 29.75, 27.5, 29.75, 38.25, 30.125, 29.25, 34.25, 30.625, 26.625, 27.875, 30.125, 38.75, 28.375, 42.0, 29.75, 28.375, 37.0, 25.75, 25.75, 30.125, 29.25, 34.25, 32.0, 28.75, 28.75, 34.75, 27.875, 27.875, 32.0, 27.875, 32.5, 34.25, 32.0, 35.25, 34.25, 28.375, 28.375, 25.375, 27.875, 30.625, 39.25, 31.625, 30.125, 34.25, 31.125, 34.25, 42.0, 34.75, 27.5, 25.375, 24.625, 34.75, 33.25, 26.25, 25.75, 37.0, 33.75, 34.75, 32.0, 25.0, 27.5, 29.75, 32.5, 36.5, 31.125, 31.125, 33.25, 30.625, 39.25, 37.5, 44.0, 29.75, 25.375, 28.375, 27.0, 33.25, 42.0, 30.625, 34.25, 29.75, 27.0, 31.625, 29.75, 34.75, 29.75, 38.25, 25.75, 35.25, 28.75, 38.25, 20.375, 23.875, 31.125, 29.25, 26.625, 27.0, 30.125, 30.625, 27.875, 32.0, 32.0, 17.75, 30.125, 32.0, 35.75, 20.75, 32.0, 30.125, 27.0, 34.75, 29.75, 30.125, 31.125, 35.25, 30.625, 28.375, 31.625, 33.25, 29.25, 32.0, 26.625, 35.75, 28.375, 26.25, 31.625, 28.75, 27.5, 34.25, 23.875, 36.5, 37.0, 34.75, 31.625, 27.5, 46.75, 24.625, 33.75, 25.75, 32.5, 26.625, 27.875, 31.625, 30.625, 25.75, 25.0, 40.5, 28.75, 33.25, 38.75, 32.5, 33.25, 29.75, 27.5, 38.25, 31.125, 30.625, 28.375, 29.25, 25.75, 29.75, 36.5, 25.75, 24.625, 29.75, 24.25, 30.125, 34.75, 22.75, 36.5, 30.125, 27.0, 25.375, 23.125, 32.0, 32.0, 35.75, 34.25, 45.25, 27.0, 29.75, 25.75, 23.125, 28.75, 30.125, 35.75, 28.75, 21.375, 29.75, 36.5, 34.25, 33.75, 33.25, 26.625, 27.875, 33.75, 27.5, 34.75, 27.0, 24.25, 24.625, 31.125, 36.5, 22.125, 32.5, 19.5, 37.0, 34.25, 29.75, 28.75, 20.375, 28.75, 40.0, 28.375, 27.0, 27.5, 24.625, 32.5, 26.25, 24.625, 23.875, 33.75, 29.25, 36.5, 27.875, 28.75, 33.25, 23.875, 30.625, 37.0, 26.25, 28.75, 31.125, 27.5, 39.25, 29.25, 28.75, 23.125, 35.75, 35.25, 32.0, 30.125, 29.25, 41.25, 27.5, 31.625, 28.375, 31.125, 37.5, 31.625, 27.875, 24.625, 28.375, 37.0, 25.0, 37.0, 28.75, 24.625, 27.0, 20.125, 28.75, 20.75, 31.125, 23.125, 35.75, 32.0, 21.75, 34.75, 23.125, 30.625, 37.5, 27.5, 38.25, 32.0, 29.75, 29.25, 30.125, 26.625, 27.0, 26.625, 32.0, 19.5, 26.625, 27.875, 30.125, 25.0, 31.125, 28.75, 23.125, 30.625, 31.625, 34.75, 26.625, 27.875, 27.0, 19.5, 25.0, 28.75, 33.75, 25.75, 33.75, 31.125, 32.0, 35.25, 27.0, 23.5, 27.875, 34.75, 24.625, 29.75, 24.25, 32.5, 32.5, 30.125, 30.125, 27.0, 32.0, 29.75, 27.5, 33.25, 22.375, 28.375, 28.75, 34.75, 27.5, 29.25, 25.375, 33.75, 26.625, 31.625, 30.625, 29.75, 29.75, 27.0, 37.0, 32.0, 30.625, 26.625, 33.25, 27.875, 32.5, 29.25, 27.5, 32.5, 31.625, 30.125, 24.625, 27.0, 24.625, 31.125, 26.625, 34.75, 35.25, 17.75, 34.75, 25.75, 30.125, 33.25, 27.0, 49.0, 29.25, 33.25, 27.0, 24.625, 27.875, 40.0, 34.25, 29.75, 28.375, 28.375, 25.0, 30.125, 28.375, 25.75, 30.625, 25.75, 25.375, 37.0, 28.375, 24.625, 27.0, 33.25, 40.0, 23.125, 33.75, 29.25, 24.625, 28.375, 30.625, 29.75, 35.75, 34.25, 24.25, 24.625, 23.5, 29.25, 28.75, 29.25, 30.625, 30.125, 24.625, 24.25, 28.375, 27.5, 25.75, 24.625, 34.75, 27.0, 27.5, 25.375, 26.25, 38.75, 25.0, 28.375, 24.25, 33.25, 29.75, 26.625, 36.5, 27.875, 35.75, 26.25, 29.75, 27.875, 25.375, 28.375, 25.375, 30.625, 25.75, 32.5, 27.875, 22.125, 18.875, 27.5, 33.25, 25.75, 32.0, 29.75, 23.875, 25.375, 28.375, 26.25, 25.375, 31.625, 23.875, 40.0, 26.25, 26.625, 26.625, 26.625, 25.375, 29.25, 21.75, 24.625, 30.125, 22.75, 27.0, 28.75, 27.0, 40.0, 25.0, 27.0, 33.25, 32.0, 31.125, 21.75, 24.625, 33.25, 33.25, 40.5, 37.0, 31.125, 29.75, 30.125, 27.875, 46.75, 28.375, 27.0, 21.75, 29.25, 30.125, 31.125, 30.125, 23.875, 29.25, 37.0, 29.25, 29.75, 25.375, 25.75, 31.625, 24.625, 28.375, 25.0, 33.25, 25.375, 32.0, 31.625, 26.625, 33.75, 23.875, 22.125, 40.5, 31.625, 30.125, 37.0, 41.25, 31.125, 32.0, 30.625, 33.25, 31.125, 30.625, 27.875, 32.0, 32.5, 27.0, 22.375, 31.125, 23.5, 25.0, 30.625, 35.75, 24.25, 18.625, 29.25, 34.25, 32.0, 27.875, 25.75, 23.125, 34.75, 27.875, 23.875, 27.5, 28.75, 40.0, 26.625, 32.0, 35.75, 33.75, 27.5, 28.75, 25.0, 23.5, 31.625, 32.5, 24.625, 27.875, 34.75, 27.875, 25.75, 23.125, 23.875, 26.25, 27.5, 28.375, 24.625, 21.75, 29.75, 24.625, 25.0, 29.75, 29.75, 30.125, 34.75, 30.125, 26.625, 41.25, 23.125, 29.75, 32.5, 26.625, 26.25, 31.125, 20.75, 23.875, 19.125, 32.0, 29.75, 30.125, 32.5, 26.25, 32.0, 34.25, 23.125, 37.5, 18.875, 24.625, 33.25, 30.625, 26.625, 25.75, 28.375, 18.25, 22.375, 33.25, 28.75, 29.25, 23.125, 20.125, 31.125, 25.0, 21.375, 22.125, 27.875, 27.875, 32.5, 27.5, 31.625, 27.875, 29.25, 34.25, 23.125, 22.75, 28.75, 30.625, 31.125, 25.375, 30.125, 34.75, 23.5, 19.75, 31.625, 29.75, 23.875, 29.75, 37.0, 28.75, 27.0, 33.75, 22.75, 27.875, 25.75, 26.625, 27.875, 28.375, 31.625, 29.75, 28.75, 32.5, 28.75, 31.125, 22.75, 27.0, 31.125, 27.5, 21.75, 21.375, 25.0, 23.5, 29.25, 22.75, 32.0, 33.25, 25.0, 20.375, 25.375, 27.5, 32.5, 33.75, 26.25, 25.75, 26.25, 27.0, 29.25, 23.875, 26.625, 28.75, 22.125, 25.0, 25.0, 30.125, 22.75, 25.0, 27.875, 26.25, 29.25, 24.625, 22.375, 25.75, 23.125, 19.125, 32.0, 33.25, 34.25, 29.75, 30.625, 25.375, 23.875, 28.375, 30.125, 27.875, 19.125, 23.125, 28.375, 23.125, 33.75, 29.75, 34.75, 26.25, 30.625, 27.5, 31.625, 24.625, 24.25, 26.625, 35.25, 26.25, 27.5, 26.25, 35.25, 33.75, 25.75, 29.25, 23.5, 18.625, 24.625, 24.625, 29.75, 32.0, 20.125, 28.375, 28.75, 25.375, 35.25, 23.125, 28.375, 28.375, 30.625, 36.5, 29.25, 23.875, 22.375, 25.375, 22.75, 26.25, 32.0, 28.75, 25.0, 25.75, 32.0, 27.5, 31.625, 28.75, 27.875, 28.75, 24.25, 28.375, 28.75, 34.75, 31.125, 27.875, 30.625, 27.5, 21.375, 27.5, 28.75, 23.875, 22.375, 43.25, 44.5, 25.375, 32.5, 25.75, 25.375, 34.25, 28.75, 27.0, 23.5, 19.125, 32.5, 20.75, 34.25, 30.625, 25.0, 27.875, 29.25, 28.375, 25.0, 22.75, 29.25, 26.25, 26.625, 38.25, 29.25, 18.625, 20.75, 27.0, 36.5, 31.625, 27.5, 27.5, 26.25, 30.625, 28.75, 31.625, 28.375, 26.625, 25.75, 25.75, 28.375, 29.75, 25.0, 27.0, 34.75, 29.75, 27.5, 22.125, 27.875, 33.75, 23.875, 26.625, 26.25, 32.0, 22.125, 23.875, 34.75, 23.875, 31.625, 27.5, 29.25, 24.25, 23.125, 38.25, 27.875, 28.375, 20.75, 25.375, 27.5, 24.25, 29.75, 24.25, 31.625, 21.375, 29.75, 29.25, 30.625, 27.875, 27.875, 26.625, 30.625, 23.5, 23.875, 32.5, 29.25, 27.0, 23.875, 27.0, 20.75, 24.625, 21.0, 24.625, 29.75, 28.375, 27.5, 21.75, 36.5, 33.25, 18.625, 24.25, 22.75, 20.125, 31.125, 24.625, 34.25, 28.375, 25.375, 24.25, 23.125, 31.625, 23.875, 27.875, 37.0, 27.5, 18.25, 13.8125, 27.5, 18.25, 21.0, 25.0, 24.625, 24.25, 28.75, 22.75, 21.0, 30.125, 25.0, 37.0, 22.75, 21.375, 27.875, 21.0, 22.75, 26.25, 30.625, 23.875, 23.5, 26.625, 31.625, 35.75, 24.25, 24.25, 21.75, 28.375, 25.375, 31.125, 26.25, 21.375, 24.25, 30.625, 24.25, 22.75, 30.125, 21.0, 21.0, 24.625, 33.25, 24.25, 33.25, 31.625, 24.25, 25.375, 30.125, 27.5, 27.5, 25.75, 22.125, 26.25, 22.75, 25.375, 22.75, 20.75, 24.625, 20.75, 29.25, 21.75, 28.375, 26.625, 33.25, 24.625, 21.0, 23.5, 27.875, 26.625, 26.625, 26.625, 29.25, 30.125, 25.75, 27.5, 24.25, 19.75, 26.25, 22.375, 28.375, 26.625, 28.75, 23.5, 21.0, 32.0, 24.625, 19.5, 23.125, 28.375, 27.0, 32.5, 30.125, 29.25, 25.0, 24.625, 20.375, 25.75, 20.375, 26.625, 25.75, 31.625, 25.0, 26.625, 25.0, 27.0, 29.25, 28.75, 26.625, 21.75, 25.0, 18.0, 23.125, 20.125, 29.75, 32.0, 32.0, 29.25, 26.25, 22.125, 24.625, 29.75, 23.125, 34.75, 26.625, 24.625, 20.75, 26.625, 22.75, 32.0, 27.875, 36.5, 25.375, 28.375, 25.75, 33.25, 27.0, 30.125, 26.25, 25.375, 25.375, 26.625, 27.5, 28.375, 17.75, 27.0, 27.0, 29.25, 21.375, 28.375, 23.875, 24.625, 24.625, 27.5, 29.75, 21.75, 23.5, 21.0, 16.625, 24.25, 17.25, 28.75, 22.125, 24.625, 29.25, 31.125]","[10.9375, 7.625, 7.40625, 7.09375, 6.9375, 6.75, 6.59375, 6.78125, 6.4375, 6.1875, 6.0625, 6.09375, 6.125, 5.96875, 6.1875, 6.21875, 5.96875, 6.03125, 6.1875, 5.875, 6.25, 5.84375, 5.875, 5.84375, 5.84375, 6.03125, 5.8125, 5.6875, 5.59375, 5.71875, 5.71875, 5.53125, 5.625, 5.59375, 5.5, 5.78125, 5.5625, 5.5, 5.78125, 5.5, 5.75, 5.75, 5.625, 5.3125, 5.375, 5.71875, 5.53125, 5.53125, 5.46875, 5.5625, 5.375, 5.28125, 5.53125, 5.375, 5.1875, 5.59375, 5.40625, 5.375, 5.4375, 5.3125, 5.28125, 5.34375, 5.375, 5.4375, 5.15625, 5.1875, 5.34375, 5.0625, 5.0625, 5.0625, 5.09375, 5.09375, 5.375, 5.15625, 5.09375, 5.25, 4.9375, 5.0625, 4.9375, 5.0, 5.125, 4.78125, 4.90625, 4.96875, 5.03125, 5.09375, 4.96875, 4.9375, 4.78125, 4.8125, 4.75, 5.03125, 4.90625, 4.78125, 4.8125, 4.9375, 5.0625, 5.09375, 4.75, 4.8125, 4.90625, 4.90625, 4.5625, 4.5625, 4.75, 4.78125, 4.46875, 4.71875, 4.78125, 4.59375, 4.75, 4.6875, 4.71875, 4.71875, 4.6875, 4.46875, 4.5, 4.65625, 4.6875, 4.59375, 4.6875, 4.53125, 4.6875, 4.59375, 4.625, 4.40625, 4.625, 4.625, 4.53125, 4.40625, 4.625, 4.625, 4.375, 4.625, 4.78125, 4.59375, 4.5625, 4.4375, 4.4375, 4.71875, 4.34375, 4.375, 4.5, 4.28125, 4.46875, 4.5, 4.53125, 4.4375, 4.3125, 4.5, 4.4375, 4.375, 4.65625, 4.34375, 4.34375, 4.3125, 4.34375, 4.21875, 4.53125, 4.25, 4.375, 4.28125, 4.21875, 4.3125, 4.34375, 4.3125, 4.1875, 4.4375, 4.28125, 4.28125, 4.28125, 4.4375, 4.3125, 4.15625, 4.46875, 4.3125, 4.28125, 4.09375, 4.1875, 4.21875, 4.4375, 4.25, 4.21875, 4.28125, 4.125, 4.0625, 4.21875, 4.3125, 4.125, 4.15625, 4.375, 4.34375, 4.21875, 4.1875, 4.28125, 4.28125, 4.21875, 4.1875, 4.09375, 4.28125, 4.09375, 4.125, 4.09375, 4.3125, 4.25, 4.125, 4.125, 4.28125, 4.21875, 4.21875, 4.21875, 4.0625, 4.3125, 4.21875, 4.21875, 4.1875, 4.25, 4.03125, 4.15625, 4.1875, 4.125, 3.96875, 4.21875, 4.15625, 4.09375, 4.125, 4.21875, 4.125, 4.03125, 4.0, 4.28125, 4.03125, 3.96875, 3.984375, 4.03125, 4.09375, 4.0, 4.0625, 3.96875, 4.09375, 4.21875, 3.953125, 3.921875, 4.3125, 4.15625, 4.125, 4.03125, 4.03125, 3.9375, 4.125, 4.0625, 4.03125, 4.125, 4.03125, 4.03125, 4.0, 3.734375, 3.9375, 4.03125, 3.921875, 4.125, 4.0, 4.09375, 3.953125, 3.921875, 4.125, 4.15625, 3.875, 3.921875, 3.921875, 3.953125, 3.921875, 4.0, 4.125, 4.03125, 4.09375, 3.859375, 3.90625, 4.03125, 3.9375, 4.09375, 3.859375, 3.9375, 3.96875, 4.09375, 3.875, 4.125, 3.953125, 3.890625, 3.9375, 3.96875, 3.984375, 3.84375, 3.84375, 3.953125, 3.984375, 4.03125, 3.859375, 3.9375, 4.0, 4.125, 3.9375, 3.921875, 3.859375, 4.09375, 3.921875, 3.828125, 3.90625, 4.0, 3.859375, 3.96875, 3.953125, 3.921875, 3.890625, 3.9375, 3.890625, 3.953125, 3.890625, 3.765625, 3.984375, 3.890625, 3.796875, 3.9375, 3.828125, 4.0625, 3.984375, 3.703125, 3.90625, 3.890625, 3.875, 4.09375, 4.0625, 3.96875, 3.8125, 3.71875, 3.890625, 3.78125, 4.0, 3.8125, 3.90625, 3.859375, 3.859375, 3.828125, 4.03125, 3.90625, 3.8125, 3.75, 3.96875, 3.90625, 3.875, 3.921875, 3.84375, 3.953125, 3.765625, 3.734375, 3.859375, 3.90625, 3.84375, 4.03125, 3.859375, 3.859375, 3.84375, 3.890625, 3.90625, 3.90625, 3.546875, 3.875, 4.0625, 4.125, 3.96875, 3.8125, 3.71875, 3.75, 3.875, 3.796875, 3.734375, 3.90625, 3.828125, 3.859375, 3.8125, 3.796875, 3.78125, 