last_val_loss,dataset,ul2,causal_denoisers,noncausal_masking,causal_divider,s_divider,r_divider,x_divider,randomize_denoiser_settings,randomize_mask_width,no_special_tokens,alternate_denoisers,progressive_tasks,model_scale,depth,width,num_params,num_non_embedding_params,num_heads,lr_mult,linear_value,seed,run_num,max_epochs,max_steps,max_tokens,max_time_seconds,gpu_capacity_scalar,train_loss_causal,train_pplx_causal,train_acc_causal,train_loss_s,train_pplx_s,train_loss_r,train_pplx_r,train_loss_x,train_pplx_x,train_acc_x_causal,train_acc_r_causal,train_acc_s_causal,train_acc_x_masked,train_acc_r_masked,train_acc_s_masked,val_loss_causal,val_pplx_causal,val_acc_causal,val_loss_s,val_pplx_s,val_loss_r,val_pplx_r,val_loss_x,val_pplx_x,grad_norm,cumulative_time,tokens_seen,epoch,batch_size,seq_length,learning_rate,weight_decay
3.078125,fineweb,false,false,false,1.0,0.0,0.0,0.0,false,false,false,false,false,5.23113258028692,21,1024,240683029,137648149,16,1.0,false,1600,1,1.0,1000000000,1000000000000,1000000000,1.9,"[10.9375, 6.875, 6.59375, 6.21875, 6.15625, 6.0625, 5.90625, 5.84375, 5.71875, 5.625, 5.65625, 5.6875, 5.5, 5.40625, 5.40625, 5.25, 5.28125, 5.1875, 5.25, 5.15625, 5.25, 5.09375, 5.21875, 4.9375, 4.9375, 4.9375, 4.875, 5.0, 4.9375, 5.0, 4.875, 4.75, 4.78125, 4.8125, 4.78125, 4.84375, 4.84375, 4.75, 4.78125, 4.65625, 4.71875, 4.6875, 4.78125, 4.6875, 4.5625, 4.625, 4.65625, 4.53125, 4.5625, 4.65625, 4.59375, 4.5, 4.65625, 4.46875, 4.375, 4.4375, 4.4375, 4.46875, 4.5, 4.46875, 4.40625, 4.5, 4.34375, 4.4375, 4.53125, 4.5, 4.34375, 4.4375, 4.5625, 4.3125, 4.53125, 4.4375, 4.375, 4.40625, 4.40625, 4.375, 4.34375, 4.34375, 4.375, 4.3125, 4.34375, 4.28125, 4.28125, 4.25, 4.21875, 4.25, 4.1875, 4.21875, 4.21875, 4.28125, 4.15625, 4.125, 4.15625, 4.1875, 4.15625, 4.21875, 4.21875, 4.0625, 4.15625, 4.125, 4.125, 4.0625, 4.0625, 4.03125, 4.0, 4.09375, 3.921875, 3.96875, 4.03125, 4.03125, 3.875, 3.9375, 4.0, 3.921875, 3.96875, 3.921875, 3.8125, 3.953125, 3.9375, 3.921875, 3.921875, 3.953125, 3.984375, 4.03125, 3.984375, 3.9375, 3.953125, 3.859375, 3.84375, 3.796875, 3.84375, 3.96875, 3.6875, 3.8125, 3.953125, 3.765625, 3.703125, 3.859375, 3.859375, 3.828125, 3.90625, 3.828125, 3.703125, 3.90625, 3.765625, 3.796875, 3.9375, 3.78125, 3.65625, 3.75, 3.734375, 3.765625, 3.859375, 3.78125, 3.84375, 3.75, 3.703125, 3.78125, 3.734375, 3.8125, 3.65625, 3.734375, 3.78125, 3.578125, 3.71875, 3.78125, 3.6875, 3.59375, 3.671875, 3.734375, 3.609375, 3.78125, 3.75, 3.6875, 3.671875, 3.625, 3.6875, 3.609375, 3.71875, 3.734375, 3.75, 3.796875, 3.59375, 3.640625, 3.625, 3.6875, 3.734375, 3.59375, 3.625, 3.6875, 3.65625, 3.578125, 3.625, 3.609375, 3.6875, 3.71875, 3.609375, 3.71875, 3.5625, 3.484375, 3.65625, 3.625, 3.609375, 3.640625, 3.578125, 3.75, 3.515625, 3.609375, 3.5625, 3.546875, 3.609375, 3.4375, 3.515625, 3.515625, 3.609375, 3.546875, 3.5625, 3.59375, 3.609375, 3.59375, 3.53125, 3.578125, 3.578125, 3.484375, 3.40625, 3.625, 3.546875, 3.671875, 3.484375, 3.546875, 3.640625, 3.4375, 3.59375, 3.609375, 3.53125, 3.5625, 3.421875, 3.578125, 3.484375, 3.546875, 3.484375, 3.46875, 3.53125, 3.4375, 3.59375, 3.5, 3.65625, 3.484375, 3.546875, 3.484375, 3.453125, 3.578125, 3.578125, 3.5, 3.53125, 3.375, 3.59375, 3.34375, 3.453125, 3.390625, 3.453125, 3.53125, 3.46875, 3.421875, 3.34375, 3.453125, 3.484375, 3.46875, 3.375, 3.40625, 3.4375, 3.546875, 3.3125, 3.546875, 3.3125, 3.4375, 3.375, 3.328125, 3.46875, 3.421875, 3.421875, 3.34375, 3.4375, 3.46875, 3.484375, 3.421875, 3.359375, 3.453125, 3.375, 3.390625, 3.484375, 3.390625, 3.4375, 3.390625, 3.5625, 3.296875, 3.359375, 3.34375, 3.53125, 3.265625, 3.453125, 3.328125, 3.40625, 3.40625, 3.5, 3.453125, 3.515625, 3.40625, 3.484375, 3.390625, 3.40625, 3.46875, 3.5, 3.390625, 3.390625, 3.359375, 3.28125, 3.4375, 3.265625, 3.296875, 3.390625, 3.40625, 3.4375, 3.3125, 3.421875, 3.375, 3.40625, 3.359375, 3.328125, 3.359375, 3.328125, 3.203125, 3.390625, 3.4375, 3.265625, 3.359375, 3.515625, 3.375, 3.359375, 3.328125, 3.34375, 3.359375, 3.25, 3.28125, 3.390625, 3.25, 3.28125, 3.40625, 3.171875, 3.390625, 3.34375, 3.328125, 3.265625, 3.390625, 3.34375, 3.25, 3.265625, 3.453125, 3.328125, 3.359375, 3.421875, 3.375, 3.390625, 3.1875, 3.328125, 3.28125, 3.265625, 3.3125, 3.265625, 3.328125, 3.3125, 3.28125, 3.296875, 3.203125, 3.34375, 3.265625, 3.25, 3.234375, 3.265625, 3.296875, 3.328125, 3.328125, 3.203125, 3.296875, 3.171875, 3.203125, 3.296875, 3.328125, 3.28125, 3.359375, 3.296875, 3.390625, 3.328125, 3.28125, 3.375, 3.296875, 3.265625, 3.265625, 3.265625, 3.296875, 3.21875, 3.28125, 3.171875, 3.171875, 3.3125, 3.25, 3.34375, 3.25, 3.265625, 3.296875, 3.28125, 3.140625, 3.296875, 3.265625, 3.21875, 3.28125, 3.21875, 3.296875, 3.15625, 3.21875, 3.296875, 3.34375, 3.171875, 3.171875, 3.171875, 3.28125, 3.203125, 3.234375, 3.21875, 3.203125, 3.15625, 3.265625, 3.28125, 3.15625, 3.1875, 3.1875, 3.21875, 3.1875, 3.203125, 3.265625, 3.203125, 3.125, 3.21875, 3.21875, 3.046875, 3.21875, 3.1875, 3.171875, 3.125, 3.296875, 3.3125, 3.1875, 3.265625, 3.203125, 3.1875, 3.1875, 3.171875, 3.171875, 3.15625, 3.203125, 3.21875, 3.125, 3.28125, 3.296875, 3.125, 3.15625, 3.140625, 3.15625, 3.171875, 3.125, 3.078125, 3.09375, 3.03125, 3.140625, 3.171875, 3.203125, 3.078125, 3.171875, 3.046875, 3.03125, 3.109375, 3.140625, 3.09375, 2.984375, 3.109375, 3.09375, 3.0, 3.0625, 3.078125, 3.0625, 3.078125, 3.140625, 3.0625, 2.953125, 3.09375, 3.234375, 3.171875, 3.078125, 2.9375, 3.0625, 3.0625, 3.140625, 3.046875, 3.0625, 2.96875, 3.0, 3.09375, 3.015625, 3.0625, 3.15625, 3.171875, 3.015625, 2.984375, 3.03125, 2.953125, 2.984375, 3.015625, 3.109375, 3.125, 3.09375, 2.953125, 3.09375, 3.0, 2.90625, 2.96875, 2.953125, 3.09375, 3.078125, 3.03125, 3.03125, 3.015625, 3.109375, 3.015625, 2.984375, 2.984375, 3.078125, 3.0625, 3.078125, 2.921875, 2.953125, 2.9375, 2.96875, 3.0, 3.015625, 3.125, 2.96875, 3.09375, 3.03125, 3.140625, 2.984375, 3.046875, 3.0625, 2.9375, 3.0625, 2.984375, 2.9375, 3.0, 3.09375, 3.03125, 2.859375, 2.96875, 3.03125, 2.96875, 3.015625, 3.046875, 2.90625, 3.125, 2.890625, 2.859375, 2.921875, 3.0, 3.015625, 3.03125, 2.953125, 2.984375, 2.984375, 2.859375, 3.03125, 3.0, 2.9375, 2.921875, 3.015625, 2.984375, 2.96875, 2.9375]","[56320.0, 968.0, 732.0, 502.0, 472.0, 430.0, 368.0, 346.0, 304.0, 278.0, 286.0, 296.0, 245.0, 223.0, 223.0, 191.0, 197.0, 179.0, 191.0, 174.0, 191.0, 163.0, 185.0, 140.0, 140.0, 140.0, 131.0, 149.0, 140.0, 149.0, 131.0, 115.5, 119.5, 123.0, 119.5, 127.0, 127.0, 115.5, 119.5, 105.5, 112.0, 108.5, 119.5, 108.5, 96.0, 102.0, 105.5, 93.0, 96.0, 105.5, 99.0, 90.0, 105.5, 87.5, 79.5, 84.5, 84.5, 87.5, 90.0, 87.5, 82.0, 90.0, 77.0, 84.5, 93.0, 90.0, 77.0, 84.5, 96.0, 74.5, 93.0, 84.5, 79.5, 82.0, 82.0, 79.5, 77.0, 77.0, 79.5, 74.5, 77.0, 72.5, 72.5, 70.0, 68.0, 70.0, 66.0, 68.0, 68.0, 72.5, 64.0, 62.0, 64.0, 66.0, 64.0, 68.0, 68.0, 58.25, 64.0, 62.0, 62.0, 58.25, 58.25, 56.25, 54.75, 60.0, 50.5, 53.0, 56.25, 56.25, 48.25, 51.25, 54.75, 50.5, 53.0, 50.5, 45.25, 52.25, 51.25, 50.5, 50.5, 52.25, 53.75, 56.25, 53.75, 51.25, 52.25, 47.5, 46.75, 44.5, 46.75, 53.0, 40.0, 45.25, 52.25, 43.25, 40.5, 47.5, 47.5, 46.0, 49.75, 46.0, 40.5, 49.75, 43.25, 44.5, 51.25, 44.0, 38.75, 42.5, 42.0, 43.25, 47.5, 44.0, 46.75, 42.5, 40.5, 44.0, 42.0, 45.25, 38.75, 42.0, 44.0, 35.75, 41.25, 44.0, 40.0, 36.5, 39.25, 42.0, 37.0, 44.0, 42.5, 40.0, 39.25, 37.5, 40.0, 37.0, 41.25, 42.0, 42.5, 44.5, 36.5, 38.25, 37.5, 40.0, 42.0, 36.5, 37.5, 40.0, 38.75, 35.75, 37.5, 37.0, 40.0, 41.25, 37.0, 41.25, 35.25, 32.5, 38.75, 37.5, 37.0, 38.25, 35.75, 42.5, 33.75, 37.0, 35.25, 34.75, 37.0, 31.125, 33.75, 33.75, 37.0, 34.75, 35.25, 36.5, 37.0, 36.5, 34.25, 35.75, 35.75, 32.5, 30.125, 37.5, 34.75, 39.25, 32.5, 34.75, 38.25, 31.125, 36.5, 37.0, 34.25, 35.25, 30.625, 35.75, 32.5, 34.75, 32.5, 32.0, 34.25, 31.125, 36.5, 33.25, 38.75, 32.5, 34.75, 32.5, 31.625, 35.75, 35.75, 33.25, 34.25, 29.25, 36.5, 28.375, 31.625, 29.75, 31.625, 34.25, 32.0, 30.625, 28.375, 31.625, 32.5, 32.0, 29.25, 30.125, 31.125, 34.75, 27.5, 34.75, 27.5, 31.125, 29.25, 27.875, 32.0, 30.625, 30.625, 28.375, 31.125, 32.0, 32.5, 30.625, 28.75, 31.625, 29.25, 29.75, 32.5, 29.75, 31.125, 29.75, 35.25, 27.0, 28.75, 28.375, 34.25, 26.25, 31.625, 27.875, 30.125, 30.125, 33.25, 31.625, 33.75, 30.125, 32.5, 29.75, 30.125, 32.0, 33.25, 29.75, 29.75, 28.75, 26.625, 31.125, 26.25, 27.0, 29.75, 30.125, 31.125, 27.5, 30.625, 29.25, 30.125, 28.75, 27.875, 28.75, 27.875, 24.625, 29.75, 31.125, 26.25, 28.75, 33.75, 29.25, 28.75, 27.875, 28.375, 28.75, 25.75, 26.625, 29.75, 25.75, 26.625, 30.125, 23.875, 29.75, 28.375, 27.875, 26.25, 29.75, 28.375, 25.75, 26.25, 31.625, 27.875, 28.75, 30.625, 29.25, 29.75, 24.25, 27.875, 26.625, 26.25, 27.5, 26.25, 27.875, 27.5, 26.625, 27.0, 24.625, 28.375, 26.25, 25.75, 25.375, 26.25, 27.0, 27.875, 27.875, 24.625, 27.0, 23.875, 24.625, 27.0, 27.875, 26.625, 28.75, 27.0, 29.75, 27.875, 26.625, 29.25, 27.0, 26.25, 26.25, 26.25, 27.0, 25.0, 26.625, 23.875, 23.875, 27.5, 25.75, 28.375, 25.75, 26.25, 27.0, 26.625, 23.125, 27.0, 26.25, 25.0, 26.625, 25.0, 27.0, 23.5, 25.0, 27.0, 28.375, 23.875, 23.875, 23.875, 26.625, 24.625, 25.375, 25.0, 24.625, 23.5, 26.25, 26.625, 23.5, 24.25, 24.25, 25.0, 24.25, 24.625, 26.25, 24.625, 22.75, 25.0, 25.0, 21.0, 25.0, 24.25, 23.875, 22.75, 27.0, 27.5, 24.25, 26.25, 24.625, 24.25, 24.25, 23.875, 23.875, 23.5, 24.625, 25.0, 22.75, 26.625, 27.0, 22.75, 23.5, 23.125, 23.5, 23.875, 22.75, 21.75, 22.125, 20.75, 23.125, 23.875, 24.625, 21.75, 23.875, 21.0, 20.75, 22.375, 23.125, 22.125, 19.75, 22.375, 22.125, 20.125, 21.375, 21.75, 21.375, 21.75, 23.125, 21.375, 19.125, 22.125, 25.375, 23.875, 21.75, 18.875, 21.375, 21.375, 23.125, 21.0, 21.375, 19.5, 20.125, 22.125, 20.375, 21.375, 23.5, 23.875, 20.375, 19.75, 20.75, 19.125, 19.75, 20.375, 22.375, 22.75, 22.125, 19.125, 22.125, 20.125, 18.25, 19.5, 19.125, 22.125, 21.75, 20.75, 20.75, 20.375, 22.375, 20.375, 19.75, 19.75, 21.75, 21.375, 21.75, 18.625, 19.125, 18.875, 19.5, 20.125, 20.375, 22.75, 19.5, 22.125, 20.75, 23.125, 19.75, 21.0, 21.375, 18.875, 21.375, 19.75, 18.875, 20.125, 22.125, 20.75, 17.5, 19.5, 20.75, 19.5, 20.375, 21.0, 18.25, 22.75, 18.0, 17.5, 18.625, 20.125, 20.375, 20.75, 19.125, 19.75, 19.75, 17.5, 20.75, 20.125, 18.875, 18.625, 20.375, 19.75, 19.5, 18.875]","[1.6551906810491346e-05, 0.09305482357740402, 0.09525622427463531, 0.09856660664081573, 0.10770326107740402, 0.09578588604927063, 0.10748808085918427, 0.12511585652828217, 0.12966763973236084, 0.1384235918521881, 0.11639300733804703, 0.1132315918803215, 0.1239241287112236, 0.14582230150699615, 0.13743048906326294, 0.13723185658454895, 0.14444848895072937, 0.12493379414081573, 0.14666645228862762, 0.14368709921836853, 0.13342492282390594, 0.13615599274635315, 0.14724576473236084, 0.12839314341545105, 0.17242121696472168, 0.16356594860553741, 0.15159891545772552, 0.14269398152828217, 0.14621955156326294, 0.14871887862682343, 0.15236030519008636, 0.1571769118309021, 0.168068066239357, 0.14876854419708252, 0.14982786774635315, 0.14158500730991364, 0.16356594860553741, 0.16467492282390594, 0.14984440803527832, 0.15042373538017273, 0.15812036395072937, 0.16634666919708252, 0.15222789347171783, 0.14625264704227448, 0.14527608454227448, 0.15999072790145874, 0.17561572790145874, 0.15974245965480804, 0.1594279706478119, 0.17134533822536469, 0.18557998538017273, 0.14598782360553741, 0.14661678671836853, 0.1992684006690979, 0.1888241469860077, 0.16823357343673706, 0.17609573900699615, 0.16432732343673706, 0.16681011021137238, 0.14929820597171783, 0.1814916580915451, 0.18293167650699615, 0.1605038344860077, 0.18023371696472168, 0.1647907793521881, 0.1632845550775528, 0.16214248538017273, 0.17511917650699615, 0.16970670223236084, 0.16257283091545105, 0.16947497427463531, 0.16052038967609406, 0.1730501800775528, 0.17725436389446259, 0.15047338604927063, 0.15298926830291748, 0.2004435956478119, 0.17915783822536469, 0.16944186389446259, 0.17867782711982727, 0.17727091908454895, 0.1852985918521881, 0.1734805405139923, 0.19082693755626678, 0.17804886400699615, 0.20865333080291748, 0.1943855881690979, 0.16502250730991364, 0.1728019118309021, 0.19961600005626678, 0.17796610295772552, 0.18483513593673706, 0.18761585652828217, 0.17245431244373322, 0.2102092206478119, 0.18468616902828217, 0.1828158050775528, 0.19930151104927063, 0.1668432205915451, 0.1974642425775528, 0.18347789347171783, 0.212890625, 0.18586136400699615, 0.17849576473236084, 0.17559917271137238, 0.18988347053527832, 0.21383407711982727, 0.19001589715480804, 0.19981461763381958, 0.17915783822536469, 0.19637182354927063, 0.20196636021137238, 0.17955508828163147, 0.20989473164081573, 0.1843716949224472, 0.21044094860553741, 0.19718286395072937, 0.19776217639446259, 0.21911413967609406, 0.22664526104927063, 0.23381224274635315, 0.18698689341545105, 0.18990002572536469, 0.17103084921836853, 0.1874503493309021, 0.2027774155139923, 0.19279661774635315, 0.20807401835918427, 0.19595801830291748, 0.19104211032390594, 0.22345073521137238, 0.1740267425775528, 0.2109375, 0.19484904408454895, 0.18801310658454895, 0.22126589715480804, 0.20511123538017273, 0.188377246260643, 0.21901483833789825, 0.22355005145072937, 0.19668631255626678, 0.20168498158454895, 0.22540386021137238, 0.17919094860553741, 0.20236361026763916, 0.21823689341545105, 0.2023967206478119, 0.20636917650699615, 0.20431673526763916, 0.19964909553527832, 0.2209017425775528, 0.24548132717609406, 0.200294628739357, 0.2284659743309021, 0.21348649263381958, 0.20567399263381958, 0.20130428671836853, 0.1955607831478119, 0.23063427209854126, 0.20047669112682343, 0.2195775955915451, 0.22639697790145874, 0.19612354040145874, 0.255660742521286, 0.21871688961982727, 0.22086864709854126, 0.23713916540145874, 0.2067829668521881, 0.22042174637317657, 0.20812366902828217, 0.22662870585918427, 0.23859573900699615, 0.2229541838169098, 0.21851827204227448, 0.2043994963169098, 0.23301774263381958, 0.22803561389446259, 0.23018737137317657, 0.19231660664081573, 0.2350536286830902, 0.22341763973236084, 0.20994438230991364, 0.2257845550775528, 0.20951403677463531, 0.2093319594860077, 0.2271914780139923, 0.20555813610553741, 0.2073291838169098, 0.20655123889446259, 0.20233051478862762, 0.21095405519008636, 0.19930151104927063, 0.2459447830915451, 0.2257349044084549, 0.20592227578163147, 0.2030753493309021, 0.22257348895072937, 0.22791975736618042, 0.21568790078163147, 0.20676642656326294, 0.22752250730991364, 0.24425648152828217, 0.24362751841545105, 0.21052370965480804, 0.23290188610553741, 0.18342822790145874, 0.24402476847171783, 0.24005229771137238, 0.2080574631690979, 0.2375033050775528, 0.21065612137317657, 0.23972126841545105, 0.2268604338169098, 0.21724377572536469, 0.20272774994373322, 0.22787010669708252, 0.23717227578163147, 0.22315280139446259, 0.2351529449224472, 0.2119637131690979, 0.2477489411830902, 0.22762182354927063, 0.22359970211982727, 0.2414592206478119, 0.21451270580291748, 0.21143405139446259, 0.2267611175775528, 0.22542041540145874, 0.20860368013381958, 0.20588916540145874, 0.22282177209854126, 0.2258342206478119, 0.22911149263381958, 0.21830309927463531, 0.23722192645072937, 0.23967161774635315, 0.23907573521137238, 0.23578190803527832, 0.22293762862682343, 0.18079647421836853, 0.20746159553527832, 0.23220670223236084, 0.21730998158454895, 0.2151913344860077, 0.22336798906326294, 0.20348913967609406, 0.23430879414081573, 0.20002979040145874, 0.22384798526763916, 0.20794160664081573, 0.2486758530139923, 0.23008805513381958, 0.23220670223236084, 0.21492651104927063, 0.24177370965480804, 0.2513241469860077, 0.2179720550775528, 0.22889631986618042, 0.2232852280139923, 0.23353084921836853, 0.22815148532390594, 0.24011851847171783, 0.2119637131690979, 0.23631156980991364, 0.2545352280139923, 0.24332958459854126, 0.22849906980991364, 0.22244107723236084, 0.25182071328163147, 0.23702330887317657, 0.23123013973236084, 0.24635858833789825, 0.24185645580291748, 0.2371557205915451, 0.22467558085918427, 0.22444385290145874, 0.23826469480991364, 0.24528270959854126, 0.2282673418521881, 0.23482190072536469, 0.21744239330291748, 0.25549522042274475, 0.210838183760643, 0.2239803969860077, 0.21989208459854126, 0.224609375, 0.23816539347171783, 0.25124138593673706, 0.24407441914081573, 0.22096796333789825, 0.2257845550775528, 0.23424258828163147, 0.22389765083789825, 0.23343154788017273, 0.24102886021137238, 0.25720009207725525, 0.23596398532390594, 0.2428661286830902, 0.20959679782390594, 0.24377648532390594, 0.24174059927463531, 0.23728813230991364, 0.21888241171836853, 0.24539856612682343, 0.260543555021286, 0.24998344480991364, 0.22101761400699615, 0.26310911774635315, 0.2536248564720154, 0.2632415294647217, 0.22254039347171783, 0.24437235295772552, 0.21355269849300385, 0.23493777215480804, 0.23558329045772552, 0.24020126461982727, 0.2482951581478119, 0.2540055513381958, 0.236427441239357, 0.2660553455352783, 0.21481063961982727, 0.25314486026763916, 0.24660685658454895, 0.2443392425775528, 0.22406315803527832, 0.2205541580915451, 0.22911149263381958, 0.23609639704227448, 0.2489737868309021, 0.24462063610553741, 0.22921080887317657, 0.2441902756690979, 0.2304190993309021, 0.22513903677463531, 0.24129369854927063, 0.2146947830915451, 0.2262149155139923, 0.24187301099300385, 0.21529065072536469, 0.24462063610553741, 0.23070047795772552, 0.22727423906326294, 0.23670881986618042, 0.20549193024635315, 0.25691869854927063, 0.21853482723236084, 0.23172669112682343, 0.25764697790145874, 0.2877383530139923, 0.22760526835918427, 0.2294921875, 0.24054886400699615, 0.2620994448661804, 0.23306739330291748, 0.25499868392944336, 0.2236824631690979, 0.24978482723236084, 0.2023470550775528, 0.22108381986618042, 0.24647444486618042, 0.25256553292274475, 0.21979276835918427, 0.24392545223236084, 0.25124138593673706, 0.23301774263381958, 0.23463983833789825, 0.2464413344860077, 0.2245597243309021, 0.25480005145072937, 0.24227026104927063, 0.2351529449224472, 0.25314486026763916, 0.24645788967609406, 0.25979873538017273, 0.2492220550775528, 0.23088255524635315, 0.2316935956478119, 0.22033898532390594, 0.2419888824224472, 0.2379833161830902, 0.20645193755626678, 0.23753641545772552, 0.22518868744373322, 0.2798430919647217, 0.25857388973236084, 0.24758341908454895, 0.25940147042274475, 0.24627582728862762, 0.23778469860553741, 0.224510058760643, 0.26511189341545105, 0.23394465446472168, 0.24092955887317657, 0.20080773532390594, 0.23660950362682343, 0.24005229771137238, 0.2688526213169098, 0.2603946030139923, 0.24548132717609406, 0.2353019118309021, 0.25271451473236084, 0.2119140625, 0.2514069080352783, 0.24268405139446259, 0.24899032711982727, 0.2629767060279846, 0.2513241469860077, 0.2760857939720154, 0.26759466528892517, 0.2419888824224472, 0.2239307463169098, 0.22700940072536469, 0.21954448521137238, 0.26686638593673706, 0.259964257478714, 0.25402212142944336, 0.23449085652828217, 0.22808527946472168, 0.24915584921836853, 0.26378774642944336, 0.21325476467609406, 0.2400357574224472, 0.20411811769008636, 0.24294888973236084, 0.22508938610553741, 0.255660742521286, 0.23420947790145874, 0.2420385330915451, 0.2510262131690979, 0.20871955156326294, 0.24371027946472168, 0.23864538967609406, 0.23490466177463531, 0.262893944978714, 0.24622616171836853, 0.25, 0.2573325037956238, 0.21558858454227448, 0.24177370965480804, 0.24960274994373322, 0.24025093019008636, 0.27428165078163147, 0.2516220808029175, 0.25172141194343567, 0.26779329776763916, 0.2545021176338196, 0.2729078531265259, 0.2603946030139923, 0.23316670954227448, 0.24647444486618042, 0.2468220293521881, 0.24885791540145874, 0.25231727957725525, 0.25797802209854126, 0.24612686038017273, 0.23043563961982727, 0.2234341949224472, 0.24258475005626678, 0.2575311064720154, 0.22835010290145874, 0.26549258828163147, 0.25680282711982727, 0.19660355150699615, 0.24591167271137238, 0.26979607343673706, 0.24235302209854126, 0.2730402648448944, 0.2629932463169098, 0.24177370965480804, 0.26661810278892517, 0.26032838225364685, 0.2680250406265259, 0.27335473895072937, 0.2398867905139923, 0.23045219480991364, 0.23751986026763916, 0.24217094480991364, 0.27292439341545105, 0.26696571707725525, 0.24715307354927063, 0.26458221673965454, 0.22782044112682343, 0.2559586763381958, 0.2633242905139923, 0.2653270661830902, 0.23220670223236084, 0.27928033471107483, 0.263870507478714, 0.27459612488746643, 0.2555779814720154, 0.25807732343673706, 0.24371027946472168, 0.2564387023448944, 0.27562233805656433, 0.26949813961982727, 0.2513241469860077, 0.24422338604927063, 0.27340438961982727, 0.22497351467609406, 0.24478614330291748, 0.2414095550775528, 0.25642213225364685, 0.267379492521286, 0.24021781980991364, 0.2731064558029175, 0.25999733805656433, 0.25213518738746643, 0.2680581212043762, 0.2649960219860077, 0.26267877221107483, 0.29265427589416504, 0.24852688610553741, 0.2741657793521881, 0.26458221673965454, 0.27971068024635315, 0.23965506255626678, 0.25569385290145874, 0.24392545223236084, 0.2340770661830902, 0.24806343019008636, 0.2760857939720154, 0.23965506255626678, 0.25777938961982727, 0.25885528326034546, 0.2895590662956238, 0.2432137131690979, 0.24382613599300385, 0.2552635073661804, 0.28125, 0.24066472053527832, 0.24543167650699615, 0.29000595211982727, 0.24352820217609406, 0.26100701093673706, 0.24935448169708252, 0.24948689341545105, 0.28724178671836853, 0.27908170223236084, 0.3047371506690979, 0.25412142276763916, 0.24251854419708252, 0.26047736406326294, 0.28469279408454895, 0.259566992521286, 0.22654594480991364, 0.23824813961982727, 0.23414327204227448, 0.24515029788017273, 0.240333691239357, 0.26809123158454895, 0.22384798526763916, 0.2772444486618042, 0.23987023532390594, 0.27522510290145874, 0.25304555892944336, 0.2728085219860077, 0.25958356261253357, 0.2622980773448944, 0.2582594156265259, 0.26423463225364685, 0.27707892656326294, 0.30187368392944336, 0.2522345185279846, 0.22772113978862762, 0.22863148152828217, 0.26681673526763916, 0.3001853823661804, 0.273636132478714, 0.26994505524635315, 0.280074805021286, 0.26911744475364685, 0.26228150725364685, 0.28148171305656433, 0.21452926099300385, 0.23584811389446259, 0.28689420223236084, 0.26140427589416504, 0.26784294843673706, 0.26911744475364685, 0.2686043381690979, 0.2916114926338196, 0.23372948169708252, 0.26408568024635315, 0.2687036693096161, 0.2767478823661804]","[10.9375, 9.5625, 9.25, 9.4375, 9.375, 9.5, 9.5, 9.4375, 9.5625, 9.375, 9.25, 9.375, 9.5, 9.5625, 9.5, 9.5, 9.4375, 9.5625, 9.375, 9.375, 9.5, 9.4375, 9.8125, 9.4375, 9.625, 9.5625, 9.4375, 9.4375, 9.5, 9.5, 9.5625, 9.625, 9.625, 9.4375, 9.5, 9.5, 9.5, 9.5625, 9.625, 9.6875, 9.5625, 9.5625, 9.5625, 9.6875, 9.6875, 9.875, 9.6875, 9.8125, 9.75, 9.75, 9.75, 9.6875, 9.6875, 9.6875, 9.6875, 9.5, 9.625, 9.5625, 9.625, 9.625, 9.625, 9.875, 9.6875, 9.75, 9.875, 9.8125, 10.0, 10.0, 10.0, 10.0, 10.125, 9.9375, 9.8125, 9.625, 9.8125, 9.75, 9.625, 9.75, 9.75, 9.6875, 9.8125, 9.875, 9.8125, 9.8125, 9.75, 9.9375, 9.875, 9.9375, 9.8125, 9.6875, 9.875, 10.0625, 10.25, 9.9375, 10.1875, 10.125, 10.125, 10.0, 9.9375, 10.25, 10.375, 10.375, 10.25, 10.3125, 10.125, 10.1875, 10.25, 10.1875, 10.3125, 10.0625, 10.1875, 10.5, 10.1875, 10.375, 10.0, 10.3125, 10.25, 10.125, 10.5625, 10.5625, 10.625, 10.3125, 10.25, 10.1875, 10.375, 10.5625, 10.25, 10.375, 10.1875, 10.0, 10.6875, 10.3125, 10.5625, 10.1875, 10.1875, 10.1875, 10.125, 10.0, 10.25, 10.3125, 10.3125, 10.3125, 10.4375, 10.3125, 10.5, 10.5625, 10.5, 10.5, 10.375, 10.1875, 10.4375, 10.375, 10.25, 10.0, 10.0, 10.125, 10.1875, 10.125, 10.1875, 10.125, 10.25, 10.3125, 10.25, 10.25, 10.125, 9.875, 10.1875, 10.0, 10.125, 10.1875, 10.5625, 10.75, 10.5625, 10.375, 10.25, 10.5625, 10.375, 10.5, 10.3125, 10.4375, 10.5625, 10.5625, 10.375, 10.1875, 10.5, 10.625, 10.4375, 10.375, 10.4375, 10.5, 10.375, 10.4375, 10.375, 10.4375, 10.1875, 10.375, 10.1875, 10.375, 10.0, 10.0, 10.0, 10.3125, 10.4375, 10.3125, 10.3125, 10.0625, 10.4375, 10.4375, 10.1875, 10.5, 10.5, 10.4375, 10.375, 10.0, 9.875, 9.875, 9.875, 10.0, 10.0625, 10.0625, 10.0625, 10.0625, 10.0625, 10.1875, 10.0625, 10.1875, 10.25, 10.125, 9.9375, 10.125, 10.125, 10.0625, 10.125, 10.125, 10.0625, 10.0, 10.125, 10.0625, 10.125, 9.8125, 10.0625, 10.125, 10.3125, 10.125, 10.0625, 10.125, 10.1875, 9.9375, 9.9375, 10.125, 10.25, 10.1875, 10.6875, 10.0625, 10.125, 10.0625, 10.0625, 10.125, 10.125, 10.125, 10.0625, 10.0625, 10.0625, 10.0625, 10.125, 10.0, 9.875, 9.9375, 10.125, 10.3125, 10.125, 10.125, 10.125, 10.0, 10.0625, 9.9375, 10.0625, 10.1875, 10.1875, 10.1875, 10.1875, 10.375, 10.0625, 10.0, 10.0, 10.25, 10.1875, 10.25, 10.375, 10.1875, 10.1875, 10.0625, 10.1875, 10.1875, 10.0, 10.0625, 10.0625, 10.0, 10.1875, 10.375, 10.3125, 10.25, 10.1875, 10.25, 10.3125, 10.4375, 10.125, 10.25, 10.1875, 10.25, 10.0, 10.1875, 10.1875, 10.0, 10.0625, 10.125, 10.3125, 10.25, 10.375, 10.4375, 10.0, 10.0625, 10.1875, 10.25, 10.1875, 10.25, 10.375, 10.125, 10.3125, 10.25, 10.1875, 10.375, 10.25, 10.25, 10.125, 10.125, 10.0625, 10.1875, 10.125, 10.1875, 10.1875, 10.0625, 10.125, 10.0625, 10.125, 10.0625, 10.1875, 10.1875, 10.3125, 10.125, 10.3125, 10.375, 10.375, 10.125, 10.1875, 10.25, 10.375, 10.125, 10.25, 10.25, 10.1875, 10.375, 10.3125, 10.4375, 10.1875, 10.375, 10.375, 10.375, 10.3125, 10.125, 10.1875, 10.25, 10.3125, 10.375, 10.25, 10.1875, 10.0625, 10.0625, 10.125, 10.0625, 10.125, 10.0625, 10.125, 10.375, 10.25, 10.375, 10.25, 10.25, 10.375, 10.3125, 10.25, 10.125, 10.25, 10.0, 10.0625, 10.0625, 10.1875, 10.3125, 10.1875, 10.3125, 10.3125, 10.25, 10.375, 10.3125, 10.25, 10.25, 10.25, 10.3125, 10.1875, 10.125, 10.4375, 10.1875, 10.0625, 10.25, 10.3125, 10.1875, 10.25, 10.0, 10.1875, 10.4375, 10.3125, 10.1875, 10.25, 10.3125, 10.25, 10.375, 10.3125, 10.375, 10.25, 10.3125, 10.5, 10.3125, 10.4375, 10.4375, 10.3125, 10.5, 10.625, 10.25, 10.5, 10.3125, 10.375, 10.375, 10.375, 10.4375, 10.5625, 10.3125, 10.4375, 10.375, 10.3125, 10.3125, 10.375, 10.3125, 10.375, 10.4375, 10.25, 10.3125, 10.4375, 10.4375, 10.3125, 10.25, 10.3125, 10.5, 10.25, 10.3125, 10.5, 10.375, 10.375, 10.4375, 10.375, 10.375, 10.5, 10.5, 10.5625, 10.5, 10.5625, 10.4375, 10.4375, 10.4375, 10.5, 10.375, 10.375, 10.5, 10.3125, 10.625, 10.5625, 10.25, 10.5625, 10.4375, 10.5, 10.5625, 10.5, 10.375, 10.4375, 10.75, 10.5625, 10.4375, 10.6875, 10.75, 10.75, 10.625, 10.8125, 10.75, 10.625, 10.6875, 10.875, 10.9375, 11.0, 11.125, 11.0, 10.8125, 10.8125, 10.875, 10.875, 10.8125, 11.0, 10.8125, 10.75, 10.75, 10.75, 10.8125, 10.9375, 10.8125, 10.875, 10.875, 10.8125, 10.9375, 10.8125, 10.6875, 10.875, 10.8125, 10.875, 11.0, 10.8125, 10.875, 10.6875, 10.75, 10.9375, 11.0, 11.25, 10.8125, 10.9375, 10.9375, 11.0, 10.9375, 10.8125, 10.9375, 10.75, 10.75, 10.75, 10.875, 10.9375, 10.9375, 10.8125, 10.9375, 10.75, 10.875, 10.75, 10.875, 11.0, 10.875, 11.125, 11.125, 11.0625, 10.75, 10.875, 10.9375, 10.5, 10.8125, 10.9375, 10.9375, 10.8125, 10.8125, 10.6875, 10.5, 10.75, 10.875, 10.75, 10.625, 10.8125, 10.75, 10.75, 10.6875, 10.4375, 10.75, 10.8125]","[56320.0, 14272.0, 10432.0, 12544.0, 11840.0, 13376.0, 13376.0, 12544.0, 14272.0, 11840.0, 10432.0, 11840.0, 13376.0, 14272.0, 13376.0, 13376.0, 12544.0, 14272.0, 11840.0, 11840.0, 13376.0, 12544.0, 18304.0, 12544.0, 15168.0, 14272.0, 12544.0, 12544.0, 13376.0, 13376.0, 14272.0, 15168.0, 15168.0, 12544.0, 13376.0, 13376.0, 13376.0, 14272.0, 15168.0, 16128.0, 14272.0, 14272.0, 14272.0, 16128.0, 16128.0, 19456.0, 16128.0, 18304.0, 17152.0, 17152.0, 17152.0, 16128.0, 16128.0, 16128.0, 16128.0, 13376.0, 15168.0, 14272.0, 15168.0, 15168.0, 15168.0, 19456.0, 16128.0, 17152.0, 19456.0, 18304.0, 22016.0, 22016.0, 22016.0, 22016.0, 24960.0, 20736.0, 18304.0, 15168.0, 18304.0, 17152.0, 15168.0, 17152.0, 17152.0, 16128.0, 18304.0, 19456.0, 18304.0, 18304.0, 17152.0, 20736.0, 19456.0, 20736.0, 18304.0, 16128.0, 19456.0, 23424.0, 28288.0, 20736.0, 26624.0, 24960.0, 24960.0, 22016.0, 20736.0, 28288.0, 32128.0, 32128.0, 28288.0, 30208.0, 24960.0, 26624.0, 28288.0, 26624.0, 30208.0, 23424.0, 26624.0, 36352.0, 26624.0, 32128.0, 22016.0, 30208.0, 28288.0, 24960.0, 38656.0, 38656.0, 41216.0, 30208.0, 28288.0, 26624.0, 32128.0, 38656.0, 28288.0, 32128.0, 26624.0, 22016.0, 43776.0, 30208.0, 38656.0, 26624.0, 26624.0, 26624.0, 24960.0, 22016.0, 28288.0, 30208.0, 30208.0, 30208.0, 34304.0, 30208.0, 36352.0, 38656.0, 36352.0, 36352.0, 32128.0, 26624.0, 34304.0, 32128.0, 28288.0, 22016.0, 22016.0, 24960.0, 26624.0, 24960.0, 26624.0, 24960.0, 28288.0, 30208.0, 28288.0, 28288.0, 24960.0, 19456.0, 26624.0, 22016.0, 24960.0, 26624.0, 38656.0, 46592.0, 38656.0, 32128.0, 28288.0, 38656.0, 32128.0, 36352.0, 30208.0, 34304.0, 38656.0, 38656.0, 32128.0, 26624.0, 36352.0, 41216.0, 34304.0, 32128.0, 34304.0, 36352.0, 32128.0, 34304.0, 32128.0, 34304.0, 26624.0, 32128.0, 26624.0, 32128.0, 22016.0, 22016.0, 22016.0, 30208.0, 34304.0, 30208.0, 30208.0, 23424.0, 34304.0, 34304.0, 26624.0, 36352.0, 36352.0, 34304.0, 32128.0, 22016.0, 19456.0, 19456.0, 19456.0, 22016.0, 23424.0, 23424.0, 23424.0, 23424.0, 23424.0, 26624.0, 23424.0, 26624.0, 28288.0, 24960.0, 20736.0, 24960.0, 24960.0, 23424.0, 24960.0, 24960.0, 23424.0, 22016.0, 24960.0, 23424.0, 24960.0, 18304.0, 23424.0, 24960.0, 30208.0, 24960.0, 23424.0, 24960.0, 26624.0, 20736.0, 20736.0, 24960.0, 28288.0, 26624.0, 43776.0, 23424.0, 24960.0, 23424.0, 23424.0, 24960.0, 24960.0, 24960.0, 23424.0, 23424.0, 23424.0, 23424.0, 24960.0, 22016.0, 19456.0, 20736.0, 24960.0, 30208.0, 24960.0, 24960.0, 24960.0, 22016.0, 23424.0, 20736.0, 23424.0, 26624.0, 26624.0, 26624.0, 26624.0, 32128.0, 23424.0, 22016.0, 22016.0, 28288.0, 26624.0, 28288.0, 32128.0, 26624.0, 26624.0, 23424.0, 26624.0, 26624.0, 22016.0, 23424.0, 23424.0, 22016.0, 26624.0, 32128.0, 30208.0, 28288.0, 26624.0, 28288.0, 30208.0, 34304.0, 24960.0, 28288.0, 26624.0, 28288.0, 22016.0, 26624.0, 26624.0, 22016.0, 23424.0, 24960.0, 30208.0, 28288.0, 32128.0, 34304.0, 22016.0, 23424.0, 26624.0, 28288.0, 26624.0, 28288.0, 32128.0, 24960.0, 30208.0, 28288.0, 26624.0, 32128.0, 28288.0, 28288.0, 24960.0, 24960.0, 23424.0, 26624.0, 24960.0, 26624.0, 26624.0, 23424.0, 24960.0, 23424.0, 24960.0, 23424.0, 26624.0, 26624.0, 30208.0, 24960.0, 30208.0, 32128.0, 32128.0, 24960.0, 26624.0, 28288.0, 32128.0, 24960.0, 28288.0, 28288.0, 26624.0, 32128.0, 30208.0, 34304.0, 26624.0, 32128.0, 32128.0, 32128.0, 30208.0, 24960.0, 26624.0, 28288.0, 30208.0, 32128.0, 28288.0, 26624.0, 23424.0, 23424.0, 24960.0, 23424.0, 24960.0, 23424.0, 24960.0, 32128.0, 28288.0, 32128.0, 28288.0, 28288.0, 32128.0, 30208.0, 28288.0, 24960.0, 28288.0, 22016.0, 23424.0, 23424.0, 26624.0, 30208.0, 26624.0, 30208.0, 30208.0, 28288.0, 32128.0, 30208.0, 28288.0, 28288.0, 28288.0, 30208.0, 26624.0, 24960.0, 34304.0, 26624.0, 23424.0, 28288.0, 30208.0, 26624.0, 28288.0, 22016.0, 26624.0, 34304.0, 30208.0, 26624.0, 28288.0, 30208.0, 28288.0, 32128.0, 30208.0, 32128.0, 28288.0, 30208.0, 36352.0, 30208.0, 34304.0, 34304.0, 30208.0, 36352.0, 41216.0, 28288.0, 36352.0, 30208.0, 32128.0, 32128.0, 32128.0, 34304.0, 38656.0, 30208.0, 34304.0, 32128.0, 30208.0, 30208.0, 32128.0, 30208.0, 32128.0, 34304.0, 28288.0, 30208.0, 34304.0, 34304.0, 30208.0, 28288.0, 30208.0, 36352.0, 28288.0, 30208.0, 36352.0, 32128.0, 32128.0, 34304.0, 32128.0, 32128.0, 36352.0, 36352.0, 38656.0, 36352.0, 38656.0, 34304.0, 34304.0, 34304.0, 36352.0, 32128.0, 32128.0, 36352.0, 30208.0, 41216.0, 38656.0, 28288.0, 38656.0, 34304.0, 36352.0, 38656.0, 36352.0, 32128.0, 34304.0, 46592.0, 38656.0, 34304.0, 43776.0, 46592.0, 46592.0, 41216.0, 49664.0, 46592.0, 41216.0, 43776.0, 52992.0, 56320.0, 59904.0, 68096.0, 59904.0, 49664.0, 49664.0, 52992.0, 52992.0, 49664.0, 59904.0, 49664.0, 46592.0, 46592.0, 46592.0, 49664.0, 56320.0, 49664.0, 52992.0, 52992.0, 49664.0, 56320.0, 49664.0, 43776.0, 52992.0, 49664.0, 52992.0, 59904.0, 49664.0, 52992.0, 43776.0, 46592.0, 56320.0, 59904.0, 76800.0, 49664.0, 56320.0, 56320.0, 59904.0, 56320.0, 49664.0, 56320.0, 46592.0, 46592.0, 46592.0, 52992.0, 56320.0, 56320.0, 49664.0, 56320.0, 46592.0, 52992.0, 46592.0, 52992.0, 59904.0, 52992.0, 68096.0, 68096.0, 63744.0, 46592.0, 52992.0, 56320.0, 36352.0, 49664.0, 56320.0, 56320.0, 49664.0, 49664.0, 43776.0, 36352.0, 46592.0, 52992.0, 46592.0, 41216.0, 49664.0, 46592.0, 46592.0, 43776.0, 34304.0, 46592.0, 49664.0]","[10.9375, 9.5625, 9.25, 9.375, 9.3125, 9.4375, 9.375, 9.4375, 9.3125, 9.3125, 9.1875, 9.25, 9.375, 9.375, 9.375, 9.3125, 9.3125, 9.4375, 9.1875, 9.25, 9.3125, 9.25, 9.375, 9.25, 9.375, 9.375, 9.25, 9.25, 9.25, 9.25, 9.1875, 9.25, 9.375, 9.25, 9.3125, 9.3125, 9.25, 9.3125, 9.375, 9.25, 9.25, 9.25, 9.25, 9.3125, 9.3125, 9.375, 9.25, 9.375, 9.375, 9.375, 9.3125, 9.3125, 9.3125, 9.375, 9.375, 9.3125, 9.3125, 9.3125, 9.3125, 9.3125, 9.3125, 9.4375, 9.75, 9.5, 9.5, 9.375, 9.5625, 9.5, 9.375, 9.5625, 9.4375, 9.5, 9.5, 9.3125, 9.4375, 9.375, 9.3125, 9.4375, 9.4375, 9.375, 9.375, 9.4375, 9.375, 9.3125, 9.3125, 9.4375, 9.4375, 9.375, 9.375, 9.3125, 9.4375, 9.4375, 9.625, 9.375, 9.5625, 9.6875, 9.5, 9.25, 9.3125, 9.375, 9.4375, 9.375, 9.375, 9.4375, 9.25, 9.375, 9.3125, 9.25, 9.375, 9.25, 9.4375, 9.4375, 9.375, 9.4375, 9.25, 9.25, 9.375, 9.25, 9.4375, 9.4375, 9.4375, 9.4375, 9.375, 9.3125, 9.4375, 9.4375, 9.375, 9.5, 9.375, 9.25, 9.625, 9.375, 9.375, 9.3125, 9.375, 9.375, 9.375, 9.3125, 9.375, 9.375, 9.375, 9.375, 9.3125, 9.375, 9.5625, 9.5625, 9.4375, 9.375, 9.4375, 9.25, 9.3125, 9.4375, 9.375, 9.3125, 9.375, 9.375, 9.4375, 9.25, 9.3125, 9.3125, 9.375, 9.4375, 9.5, 9.375, 9.375, 9.1875, 9.375, 9.375, 9.3125, 9.3125, 9.6875, 9.5625, 9.375, 9.375, 9.5, 9.5, 9.3125, 9.4375, 9.3125, 9.375, 9.4375, 9.4375, 9.3125, 9.25, 9.4375, 9.3125, 9.375, 9.1875, 9.3125, 9.3125, 9.375, 9.3125, 9.3125, 9.375, 9.3125, 9.5, 9.3125, 9.4375, 9.3125, 9.3125, 9.1875, 9.5, 9.4375, 9.4375, 9.5, 9.375, 9.375, 9.375, 9.375, 9.4375, 9.4375, 9.625, 9.5, 9.375, 9.3125, 9.125, 9.125, 9.3125, 9.3125, 9.3125, 9.3125, 9.3125, 9.3125, 9.375, 9.25, 9.3125, 9.4375, 9.25, 9.1875, 9.25, 9.25, 9.1875, 9.375, 9.25, 9.3125, 9.3125, 9.375, 9.3125, 9.3125, 9.1875, 9.375, 9.375, 9.5625, 9.3125, 9.25, 9.3125, 9.3125, 9.125, 9.125, 9.3125, 9.375, 9.375, 9.75, 9.3125, 9.4375, 9.3125, 9.25, 9.1875, 9.25, 9.25, 9.1875, 9.25, 9.1875, 9.1875, 9.3125, 9.25, 9.1875, 9.1875, 9.1875, 9.25, 9.25, 9.3125, 9.375, 9.25, 9.1875, 9.25, 9.3125, 9.1875, 9.375, 9.1875, 9.3125, 9.4375, 9.375, 9.25, 9.375, 9.5625, 9.375, 9.4375, 9.4375, 9.25, 9.375, 9.25, 9.3125, 9.375, 9.1875, 9.3125, 9.3125, 9.375, 9.4375, 9.5, 9.4375, 9.4375, 9.3125, 9.375, 9.3125, 9.375, 9.25, 9.3125, 9.375, 9.4375, 9.3125, 9.375, 9.4375, 9.1875, 9.25, 9.375, 9.4375, 9.4375, 9.4375, 9.375, 9.25, 9.1875, 9.375, 9.4375, 9.375, 9.5, 9.625, 9.375, 9.5, 9.5, 9.5, 9.5, 9.5, 9.5, 9.3125, 9.375, 9.375, 9.5, 9.4375, 9.5625, 9.625, 9.4375, 9.5, 9.3125, 9.4375, 9.375, 9.4375, 9.4375, 9.4375, 9.3125, 9.5625, 9.5, 9.5, 9.3125, 9.375, 9.375, 9.5, 9.4375, 9.5, 9.4375, 9.4375, 9.625, 9.4375, 9.5, 9.3125, 9.4375, 9.5, 9.5625, 9.4375, 9.375, 9.5625, 9.5625, 9.5, 9.5625, 9.5, 9.5, 9.375, 9.375, 9.4375, 9.4375, 9.5, 9.375, 9.5, 9.5625, 9.5, 9.75, 9.5625, 9.5, 9.8125, 9.6875, 9.625, 9.5625, 9.625, 9.4375, 9.5, 9.4375, 9.5625, 9.625, 9.625, 9.625, 9.625, 9.6875, 9.6875, 9.5625, 9.5625, 9.5, 9.5625, 9.625, 9.5625, 9.5, 9.75, 9.5625, 9.4375, 9.5625, 9.6875, 9.5625, 9.5625, 9.375, 9.4375, 9.5625, 9.5, 9.375, 9.4375, 9.5, 9.5, 9.5, 9.5, 9.5, 9.4375, 9.5625, 9.75, 9.5, 9.6875, 9.5625, 9.4375, 9.6875, 9.6875, 9.5625, 9.625, 9.625, 9.5625, 9.5625, 9.625, 9.6875, 9.75, 9.625, 9.75, 9.625, 9.6875, 9.625, 9.5625, 9.625, 9.625, 9.5625, 9.5, 9.5, 9.625, 9.625, 9.5, 9.5, 9.5625, 9.6875, 9.75, 9.5625, 9.75, 9.6875, 9.625, 9.6875, 9.6875, 9.625, 9.6875, 9.5625, 9.625, 9.625, 9.625, 9.4375, 9.5625, 9.5625, 9.625, 9.5625, 9.625, 9.6875, 9.5625, 9.75, 9.8125, 9.5625, 9.6875, 9.6875, 9.6875, 9.875, 9.75, 9.625, 9.75, 9.9375, 9.875, 9.6875, 9.875, 9.875, 9.9375, 9.8125, 9.875, 9.875, 9.8125, 9.8125, 9.9375, 10.0625, 10.1875, 10.125, 10.0625, 9.75, 9.875, 9.875, 9.875, 9.8125, 9.9375, 9.875, 9.75, 9.75, 9.875, 9.875, 9.9375, 9.875, 9.875, 9.8125, 9.9375, 10.0, 9.8125, 9.8125, 9.875, 9.8125, 9.8125, 9.8125, 9.6875, 9.875, 9.75, 9.8125, 9.8125, 9.8125, 10.0, 9.6875, 9.8125, 9.75, 9.875, 9.875, 9.6875, 9.8125, 9.75, 9.75, 9.8125, 9.75, 9.875, 10.0, 9.875, 9.8125, 9.875, 9.9375, 9.8125, 9.875, 9.9375, 9.875, 9.9375, 9.9375, 9.9375, 9.75, 9.9375, 9.9375, 9.625, 9.875, 10.0, 9.9375, 9.875, 9.75, 9.8125, 9.625, 9.8125, 9.9375, 9.6875, 9.625, 9.75, 9.6875, 9.6875, 9.625, 9.375, 9.6875, 9.6875]","[56320.0, 14272.0, 10432.0, 11840.0, 11072.0, 12544.0, 11840.0, 12544.0, 11072.0, 11072.0, 9792.0, 10432.0, 11840.0, 11840.0, 11840.0, 11072.0, 11072.0, 12544.0, 9792.0, 10432.0, 11072.0, 10432.0, 11840.0, 10432.0, 11840.0, 11840.0, 10432.0, 10432.0, 10432.0, 10432.0, 9792.0, 10432.0, 11840.0, 10432.0, 11072.0, 11072.0, 10432.0, 11072.0, 11840.0, 10432.0, 10432.0, 10432.0, 10432.0, 11072.0, 11072.0, 11840.0, 10432.0, 11840.0, 11840.0, 11840.0, 11072.0, 11072.0, 11072.0, 11840.0, 11840.0, 11072.0, 11072.0, 11072.0, 11072.0, 11072.0, 11072.0, 12544.0, 17152.0, 13376.0, 13376.0, 11840.0, 14272.0, 13376.0, 11840.0, 14272.0, 12544.0, 13376.0, 13376.0, 11072.0, 12544.0, 11840.0, 11072.0, 12544.0, 12544.0, 11840.0, 11840.0, 12544.0, 11840.0, 11072.0, 11072.0, 12544.0, 12544.0, 11840.0, 11840.0, 11072.0, 12544.0, 12544.0, 15168.0, 11840.0, 14272.0, 16128.0, 13376.0, 10432.0, 11072.0, 11840.0, 12544.0, 11840.0, 11840.0, 12544.0, 10432.0, 11840.0, 11072.0, 10432.0, 11840.0, 10432.0, 12544.0, 12544.0, 11840.0, 12544.0, 10432.0, 10432.0, 11840.0, 10432.0, 12544.0, 12544.0, 12544.0, 12544.0, 11840.0, 11072.0, 12544.0, 12544.0, 11840.0, 13376.0, 11840.0, 10432.0, 15168.0, 11840.0, 11840.0, 11072.0, 11840.0, 11840.0, 11840.0, 11072.0, 11840.0, 11840.0, 11840.0, 11840.0, 11072.0, 11840.0, 14272.0, 14272.0, 12544.0, 11840.0, 12544.0, 10432.0, 11072.0, 12544.0, 11840.0, 11072.0, 11840.0, 11840.0, 12544.0, 10432.0, 11072.0, 11072.0, 11840.0, 12544.0, 13376.0, 11840.0, 11840.0, 9792.0, 11840.0, 11840.0, 11072.0, 11072.0, 16128.0, 14272.0, 11840.0, 11840.0, 13376.0, 13376.0, 11072.0, 12544.0, 11072.0, 11840.0, 12544.0, 12544.0, 11072.0, 10432.0, 12544.0, 11072.0, 11840.0, 9792.0, 11072.0, 11072.0, 11840.0, 11072.0, 11072.0, 11840.0, 11072.0, 13376.0, 11072.0, 12544.0, 11072.0, 11072.0, 9792.0, 13376.0, 12544.0, 12544.0, 13376.0, 11840.0, 11840.0, 11840.0, 11840.0, 12544.0, 12544.0, 15168.0, 13376.0, 11840.0, 11072.0, 9216.0, 9216.0, 11072.0, 11072.0, 11072.0, 11072.0, 11072.0, 11072.0, 11840.0, 10432.0, 11072.0, 12544.0, 10432.0, 9792.0, 10432.0, 10432.0, 9792.0, 11840.0, 10432.0, 11072.0, 11072.0, 11840.0, 11072.0, 11072.0, 9792.0, 11840.0, 11840.0, 14272.0, 11072.0, 10432.0, 11072.0, 11072.0, 9216.0, 9216.0, 11072.0, 11840.0, 11840.0, 17152.0, 11072.0, 12544.0, 11072.0, 10432.0, 9792.0, 10432.0, 10432.0, 9792.0, 10432.0, 9792.0, 9792.0, 11072.0, 10432.0, 9792.0, 9792.0, 9792.0, 10432.0, 10432.0, 11072.0, 11840.0, 10432.0, 9792.0, 10432.0, 11072.0, 9792.0, 11840.0, 9792.0, 11072.0, 12544.0, 11840.0, 10432.0, 11840.0, 14272.0, 11840.0, 12544.0, 12544.0, 10432.0, 11840.0, 10432.0, 11072.0, 11840.0, 9792.0, 11072.0, 11072.0, 11840.0, 12544.0, 13376.0, 12544.0, 12544.0, 11072.0, 11840.0, 11072.0, 11840.0, 10432.0, 11072.0, 11840.0, 12544.0, 11072.0, 11840.0, 12544.0, 9792.0, 10432.0, 11840.0, 12544.0, 12544.0, 12544.0, 11840.0, 10432.0, 9792.0, 11840.0, 12544.0, 11840.0, 13376.0, 15168.0, 11840.0, 13376.0, 13376.0, 13376.0, 13376.0, 13376.0, 13376.0, 11072.0, 11840.0, 11840.0, 13376.0, 12544.0, 14272.0, 15168.0, 12544.0, 13376.0, 11072.0, 12544.0, 11840.0, 12544.0, 12544.0, 12544.0, 11072.0, 14272.0, 13376.0, 13376.0, 11072.0, 11840.0, 11840.0, 13376.0, 12544.0, 13376.0, 12544.0, 12544.0, 15168.0, 12544.0, 13376.0, 11072.0, 12544.0, 13376.0, 14272.0, 12544.0, 11840.0, 14272.0, 14272.0, 13376.0, 14272.0, 13376.0, 13376.0, 11840.0, 11840.0, 12544.0, 12544.0, 13376.0, 11840.0, 13376.0, 14272.0, 13376.0, 17152.0, 14272.0, 13376.0, 18304.0, 16128.0, 15168.0, 14272.0, 15168.0, 12544.0, 13376.0, 12544.0, 14272.0, 15168.0, 15168.0, 15168.0, 15168.0, 16128.0, 16128.0, 14272.0, 14272.0, 13376.0, 14272.0, 15168.0, 14272.0, 13376.0, 17152.0, 14272.0, 12544.0, 14272.0, 16128.0, 14272.0, 14272.0, 11840.0, 12544.0, 14272.0, 13376.0, 11840.0, 12544.0, 13376.0, 13376.0, 13376.0, 13376.0, 13376.0, 12544.0, 14272.0, 17152.0, 13376.0, 16128.0, 14272.0, 12544.0, 16128.0, 16128.0, 14272.0, 15168.0, 15168.0, 14272.0, 14272.0, 15168.0, 16128.0, 17152.0, 15168.0, 17152.0, 15168.0, 16128.0, 15168.0, 14272.0, 15168.0, 15168.0, 14272.0, 13376.0, 13376.0, 15168.0, 15168.0, 13376.0, 13376.0, 14272.0, 16128.0, 17152.0, 14272.0, 17152.0, 16128.0, 15168.0, 16128.0, 16128.0, 15168.0, 16128.0, 14272.0, 15168.0, 15168.0, 15168.0, 12544.0, 14272.0, 14272.0, 15168.0, 14272.0, 15168.0, 16128.0, 14272.0, 17152.0, 18304.0, 14272.0, 16128.0, 16128.0, 16128.0, 19456.0, 17152.0, 15168.0, 17152.0, 20736.0, 19456.0, 16128.0, 19456.0, 19456.0, 20736.0, 18304.0, 19456.0, 19456.0, 18304.0, 18304.0, 20736.0, 23424.0, 26624.0, 24960.0, 23424.0, 17152.0, 19456.0, 19456.0, 19456.0, 18304.0, 20736.0, 19456.0, 17152.0, 17152.0, 19456.0, 19456.0, 20736.0, 19456.0, 19456.0, 18304.0, 20736.0, 22016.0, 18304.0, 18304.0, 19456.0, 18304.0, 18304.0, 18304.0, 16128.0, 19456.0, 17152.0, 18304.0, 18304.0, 18304.0, 22016.0, 16128.0, 18304.0, 17152.0, 19456.0, 19456.0, 16128.0, 18304.0, 17152.0, 17152.0, 18304.0, 17152.0, 19456.0, 22016.0, 19456.0, 18304.0, 19456.0, 20736.0, 18304.0, 19456.0, 20736.0, 19456.0, 20736.0, 20736.0, 20736.0, 17152.0, 20736.0, 20736.0, 15168.0, 19456.0, 22016.0, 20736.0, 19456.0, 17152.0, 18304.0, 15168.0, 18304.0, 20736.0, 16128.0, 15168.0, 17152.0, 16128.0, 16128.0, 15168.0, 11840.0, 16128.0, 16128.0]","[10.9375, 9.125, 8.9375, 9.0625, 9.0625, 9.1875, 9.25, 9.125, 9.1875, 9.1875, 9.0625, 9.0625, 9.25, 9.3125, 9.3125, 9.3125, 9.3125, 9.75, 9.125, 8.9375, 9.3125, 9.375, 9.75, 9.125, 9.3125, 9.3125, 9.1875, 9.125, 9.125, 9.125, 9.375, 9.3125, 9.3125, 9.4375, 9.3125, 9.25, 9.25, 9.5625, 9.6875, 9.4375, 9.25, 9.375, 9.25, 9.5625, 9.875, 9.9375, 9.375, 9.75, 9.8125, 9.6875, 9.6875, 9.5625, 9.625, 9.5625, 9.8125, 9.375, 9.375, 9.375, 9.4375, 9.625, 9.6875, 10.25, 11.5, 10.375, 10.3125, 10.5, 11.25, 11.25, 10.875, 10.9375, 11.25, 11.625, 10.0625, 9.3125, 10.0625, 9.625, 9.5625, 9.6875, 9.5625, 9.5625, 9.9375, 9.9375, 10.0625, 9.875, 9.9375, 10.3125, 10.4375, 10.4375, 10.1875, 9.5625, 10.4375, 10.625, 11.0625, 9.875, 10.625, 11.0625, 10.4375, 10.3125, 10.5, 11.0, 11.375, 10.9375, 10.8125, 11.0, 10.375, 10.375, 10.4375, 10.625, 11.0625, 10.5625, 11.25, 10.9375, 10.5625, 10.6875, 10.4375, 10.6875, 10.625, 10.3125, 11.4375, 11.0625, 11.1875, 10.8125, 11.125, 10.8125, 11.0, 10.9375, 11.0, 11.0, 10.75, 10.25, 12.125, 11.4375, 11.3125, 11.0, 10.875, 10.8125, 10.5625, 10.125, 10.25, 10.4375, 10.75, 10.875, 10.6875, 10.5625, 11.1875, 11.5, 11.0, 10.875, 11.0625, 10.75, 10.8125, 10.3125, 10.3125, 10.0, 10.3125, 10.5, 10.5, 10.375, 10.125, 10.125, 10.25, 10.4375, 10.375, 10.125, 9.9375, 9.625, 10.125, 10.0625, 10.1875, 10.3125, 10.875, 11.0, 10.625, 10.5625, 10.875, 10.5625, 10.1875, 10.125, 10.375, 10.4375, 10.75, 10.75, 10.375, 10.375, 10.8125, 10.5625, 10.8125, 10.5625, 10.75, 10.4375, 10.5, 10.625, 10.375, 10.625, 10.3125, 10.375, 10.25, 10.8125, 9.75, 9.625, 9.75, 10.5, 10.6875, 10.25, 10.125, 10.5, 10.375, 10.5625, 10.3125, 10.5625, 10.75, 10.625, 10.5625, 9.625, 9.3125, 9.3125, 9.25, 9.5, 9.875, 9.8125, 9.75, 9.6875, 9.75, 10.0, 9.875, 10.0625, 10.125, 9.875, 9.625, 9.875, 9.875, 9.75, 10.0, 9.875, 9.6875, 9.6875, 9.8125, 9.875, 9.875, 9.75, 9.6875, 9.75, 10.5, 9.8125, 9.625, 9.875, 9.9375, 9.25, 9.375, 9.5, 9.75, 9.75, 11.375, 9.8125, 9.6875, 9.625, 9.875, 9.6875, 9.75, 9.75, 9.5, 9.5, 9.4375, 9.5625, 9.75, 9.5625, 9.5, 9.5625, 9.625, 10.0, 9.6875, 10.0625, 9.75, 9.625, 9.625, 9.5, 9.6875, 9.5625, 9.875, 9.6875, 9.8125, 10.125, 10.1875, 9.5, 9.875, 10.125, 9.875, 10.0625, 10.0625, 9.9375, 9.875, 9.6875, 9.8125, 9.9375, 9.625, 9.375, 9.5, 9.6875, 10.25, 10.25, 10.0625, 9.9375, 9.75, 10.1875, 10.0, 10.0625, 9.75, 9.75, 9.75, 9.875, 9.75, 10.0625, 10.25, 9.5, 9.75, 10.0, 9.9375, 9.9375, 10.1875, 10.0, 9.3125, 9.4375, 9.75, 9.9375, 9.75, 10.0625, 10.1875, 9.5625, 9.9375, 9.875, 9.9375, 10.1875, 10.25, 10.0625, 9.8125, 9.8125, 9.75, 10.0625, 9.8125, 9.9375, 10.0, 9.75, 9.5625, 9.5, 9.75, 9.5, 9.8125, 9.6875, 9.8125, 9.5625, 10.375, 10.125, 10.125, 9.75, 9.6875, 10.0, 10.25, 10.125, 10.0625, 9.9375, 10.25, 10.5625, 10.25, 10.375, 9.8125, 10.125, 10.3125, 10.1875, 10.1875, 10.0, 10.4375, 10.1875, 10.1875, 10.25, 10.0625, 10.0625, 9.625, 9.5625, 9.875, 9.875, 10.125, 9.875, 10.125, 10.0625, 10.0, 10.625, 10.3125, 10.5625, 10.875, 10.5, 10.125, 10.0625, 10.0625, 10.0625, 9.8125, 9.625, 10.0, 10.125, 10.0625, 10.0625, 10.25, 10.25, 10.25, 10.0625, 10.1875, 9.9375, 10.125, 10.0625, 9.8125, 10.0, 10.25, 9.9375, 9.8125, 9.875, 10.125, 10.0, 9.6875, 9.5625, 9.8125, 10.0625, 10.0, 9.6875, 9.875, 9.9375, 9.875, 9.9375, 9.9375, 10.0, 9.875, 10.0, 10.1875, 9.9375, 10.1875, 10.125, 10.125, 10.3125, 10.4375, 10.3125, 10.1875, 10.0, 9.9375, 9.8125, 10.0625, 10.4375, 10.5, 10.0625, 10.375, 10.125, 10.25, 10.0, 10.0, 9.9375, 10.0625, 9.875, 9.875, 10.0, 10.1875, 10.125, 9.6875, 9.75, 9.9375, 10.25, 10.3125, 10.0, 10.0625, 10.0625, 9.9375, 10.0625, 10.0625, 10.0625, 10.125, 10.125, 10.0625, 10.125, 10.5, 10.1875, 10.125, 9.875, 10.125, 10.0625, 9.9375, 10.0625, 9.75, 10.0, 10.1875, 9.8125, 10.0, 10.0, 10.0, 10.1875, 10.125, 9.9375, 10.375, 10.375, 10.3125, 10.125, 10.5, 10.375, 10.3125, 10.3125, 10.4375, 10.375, 10.25, 10.375, 10.5, 11.1875, 11.6875, 11.25, 10.8125, 10.4375, 10.375, 10.5, 10.5, 10.5, 10.625, 10.5625, 10.375, 10.3125, 10.4375, 10.4375, 10.625, 10.5625, 10.5, 10.375, 10.375, 10.5625, 10.4375, 10.4375, 10.5625, 10.4375, 10.4375, 10.375, 10.1875, 10.375, 10.0, 9.9375, 10.125, 10.3125, 10.375, 10.0, 10.125, 10.1875, 10.375, 10.4375, 10.0625, 10.1875, 10.0625, 10.0625, 10.1875, 10.1875, 10.1875, 10.125, 10.1875, 10.375, 9.9375, 10.1875, 10.125, 10.1875, 10.375, 10.3125, 10.5, 10.5, 10.5, 10.3125, 10.375, 10.375, 9.8125, 9.9375, 10.0, 10.1875, 10.125, 10.0, 9.9375, 9.9375, 10.0625, 10.125, 9.9375, 9.875, 9.6875, 9.8125, 9.75, 9.75, 9.375, 9.8125, 9.875]","[56320.0, 9216.0, 7616.0, 8640.0, 8640.0, 9792.0, 10432.0, 9216.0, 9792.0, 9792.0, 8640.0, 8640.0, 10432.0, 11072.0, 11072.0, 11072.0, 11072.0, 17152.0, 9216.0, 7616.0, 11072.0, 11840.0, 17152.0, 9216.0, 11072.0, 11072.0, 9792.0, 9216.0, 9216.0, 9216.0, 11840.0, 11072.0, 11072.0, 12544.0, 11072.0, 10432.0, 10432.0, 14272.0, 16128.0, 12544.0, 10432.0, 11840.0, 10432.0, 14272.0, 19456.0, 20736.0, 11840.0, 17152.0, 18304.0, 16128.0, 16128.0, 14272.0, 15168.0, 14272.0, 18304.0, 11840.0, 11840.0, 11840.0, 12544.0, 15168.0, 16128.0, 28288.0, 98816.0, 32128.0, 30208.0, 36352.0, 76800.0, 76800.0, 52992.0, 56320.0, 76800.0, 112128.0, 23424.0, 11072.0, 23424.0, 15168.0, 14272.0, 16128.0, 14272.0, 14272.0, 20736.0, 20736.0, 23424.0, 19456.0, 20736.0, 30208.0, 34304.0, 34304.0, 26624.0, 14272.0, 34304.0, 41216.0, 63744.0, 19456.0, 41216.0, 63744.0, 34304.0, 30208.0, 36352.0, 59904.0, 87040.0, 56320.0, 49664.0, 59904.0, 32128.0, 32128.0, 34304.0, 41216.0, 63744.0, 38656.0, 76800.0, 56320.0, 38656.0, 43776.0, 34304.0, 43776.0, 41216.0, 30208.0, 92672.0, 63744.0, 72192.0, 49664.0, 68096.0, 49664.0, 59904.0, 56320.0, 59904.0, 59904.0, 46592.0, 28288.0, 184320.0, 92672.0, 81920.0, 59904.0, 52992.0, 49664.0, 38656.0, 24960.0, 28288.0, 34304.0, 46592.0, 52992.0, 43776.0, 38656.0, 72192.0, 98816.0, 59904.0, 52992.0, 63744.0, 46592.0, 49664.0, 30208.0, 30208.0, 22016.0, 30208.0, 36352.0, 36352.0, 32128.0, 24960.0, 24960.0, 28288.0, 34304.0, 32128.0, 24960.0, 20736.0, 15168.0, 24960.0, 23424.0, 26624.0, 30208.0, 52992.0, 59904.0, 41216.0, 38656.0, 52992.0, 38656.0, 26624.0, 24960.0, 32128.0, 34304.0, 46592.0, 46592.0, 32128.0, 32128.0, 49664.0, 38656.0, 49664.0, 38656.0, 46592.0, 34304.0, 36352.0, 41216.0, 32128.0, 41216.0, 30208.0, 32128.0, 28288.0, 49664.0, 17152.0, 15168.0, 17152.0, 36352.0, 43776.0, 28288.0, 24960.0, 36352.0, 32128.0, 38656.0, 30208.0, 38656.0, 46592.0, 41216.0, 38656.0, 15168.0, 11072.0, 11072.0, 10432.0, 13376.0, 19456.0, 18304.0, 17152.0, 16128.0, 17152.0, 22016.0, 19456.0, 23424.0, 24960.0, 19456.0, 15168.0, 19456.0, 19456.0, 17152.0, 22016.0, 19456.0, 16128.0, 16128.0, 18304.0, 19456.0, 19456.0, 17152.0, 16128.0, 17152.0, 36352.0, 18304.0, 15168.0, 19456.0, 20736.0, 10432.0, 11840.0, 13376.0, 17152.0, 17152.0, 87040.0, 18304.0, 16128.0, 15168.0, 19456.0, 16128.0, 17152.0, 17152.0, 13376.0, 13376.0, 12544.0, 14272.0, 17152.0, 14272.0, 13376.0, 14272.0, 15168.0, 22016.0, 16128.0, 23424.0, 17152.0, 15168.0, 15168.0, 13376.0, 16128.0, 14272.0, 19456.0, 16128.0, 18304.0, 24960.0, 26624.0, 13376.0, 19456.0, 24960.0, 19456.0, 23424.0, 23424.0, 20736.0, 19456.0, 16128.0, 18304.0, 20736.0, 15168.0, 11840.0, 13376.0, 16128.0, 28288.0, 28288.0, 23424.0, 20736.0, 17152.0, 26624.0, 22016.0, 23424.0, 17152.0, 17152.0, 17152.0, 19456.0, 17152.0, 23424.0, 28288.0, 13376.0, 17152.0, 22016.0, 20736.0, 20736.0, 26624.0, 22016.0, 11072.0, 12544.0, 17152.0, 20736.0, 17152.0, 23424.0, 26624.0, 14272.0, 20736.0, 19456.0, 20736.0, 26624.0, 28288.0, 23424.0, 18304.0, 18304.0, 17152.0, 23424.0, 18304.0, 20736.0, 22016.0, 17152.0, 14272.0, 13376.0, 17152.0, 13376.0, 18304.0, 16128.0, 18304.0, 14272.0, 32128.0, 24960.0, 24960.0, 17152.0, 16128.0, 22016.0, 28288.0, 24960.0, 23424.0, 20736.0, 28288.0, 38656.0, 28288.0, 32128.0, 18304.0, 24960.0, 30208.0, 26624.0, 26624.0, 22016.0, 34304.0, 26624.0, 26624.0, 28288.0, 23424.0, 23424.0, 15168.0, 14272.0, 19456.0, 19456.0, 24960.0, 19456.0, 24960.0, 23424.0, 22016.0, 41216.0, 30208.0, 38656.0, 52992.0, 36352.0, 24960.0, 23424.0, 23424.0, 23424.0, 18304.0, 15168.0, 22016.0, 24960.0, 23424.0, 23424.0, 28288.0, 28288.0, 28288.0, 23424.0, 26624.0, 20736.0, 24960.0, 23424.0, 18304.0, 22016.0, 28288.0, 20736.0, 18304.0, 19456.0, 24960.0, 22016.0, 16128.0, 14272.0, 18304.0, 23424.0, 22016.0, 16128.0, 19456.0, 20736.0, 19456.0, 20736.0, 20736.0, 22016.0, 19456.0, 22016.0, 26624.0, 20736.0, 26624.0, 24960.0, 24960.0, 30208.0, 34304.0, 30208.0, 26624.0, 22016.0, 20736.0, 18304.0, 23424.0, 34304.0, 36352.0, 23424.0, 32128.0, 24960.0, 28288.0, 22016.0, 22016.0, 20736.0, 23424.0, 19456.0, 19456.0, 22016.0, 26624.0, 24960.0, 16128.0, 17152.0, 20736.0, 28288.0, 30208.0, 22016.0, 23424.0, 23424.0, 20736.0, 23424.0, 23424.0, 23424.0, 24960.0, 24960.0, 23424.0, 24960.0, 36352.0, 26624.0, 24960.0, 19456.0, 24960.0, 23424.0, 20736.0, 23424.0, 17152.0, 22016.0, 26624.0, 18304.0, 22016.0, 22016.0, 22016.0, 26624.0, 24960.0, 20736.0, 32128.0, 32128.0, 30208.0, 24960.0, 36352.0, 32128.0, 30208.0, 30208.0, 34304.0, 32128.0, 28288.0, 32128.0, 36352.0, 72192.0, 119296.0, 76800.0, 49664.0, 34304.0, 32128.0, 36352.0, 36352.0, 36352.0, 41216.0, 38656.0, 32128.0, 30208.0, 34304.0, 34304.0, 41216.0, 38656.0, 36352.0, 32128.0, 32128.0, 38656.0, 34304.0, 34304.0, 38656.0, 34304.0, 34304.0, 32128.0, 26624.0, 32128.0, 22016.0, 20736.0, 24960.0, 30208.0, 32128.0, 22016.0, 24960.0, 26624.0, 32128.0, 34304.0, 23424.0, 26624.0, 23424.0, 23424.0, 26624.0, 26624.0, 26624.0, 24960.0, 26624.0, 32128.0, 20736.0, 26624.0, 24960.0, 26624.0, 32128.0, 30208.0, 36352.0, 36352.0, 36352.0, 30208.0, 32128.0, 32128.0, 18304.0, 20736.0, 22016.0, 26624.0, 24960.0, 22016.0, 20736.0, 20736.0, 23424.0, 24960.0, 20736.0, 19456.0, 16128.0, 18304.0, 17152.0, 17152.0, 11840.0, 18304.0, 19456.0]","[0.0, 0.0018869987688958645, 0.0015321477549150586, 0.0008736008894629776, 0.0019636719953268766, 0.0012259576469659805, 0.0012504077749326825, 0.0017761018825694919, 0.0021381578408181667, 0.001561301643960178, 0.001420726184733212, 0.0013123718090355396, 0.001394585706293583, 0.0013691503554582596, 0.0013071539578959346, 0.0006047777715139091, 0.0010337323183193803, 0.00010923887748504058, 0.001507262233644724, 0.00183005107101053, 0.0007140503148548305, 0.0015557192964479327, 0.0001363103510811925, 0.0011949378531426191, 0.001201988779939711, 0.0013138805516064167, 0.0012523140758275986, 0.0008778186165727675, 0.0009332967456430197, 0.0008228195365518332, 0.00013623606355395168, 0.0005181912565603852, 0.000762402662076056, 0.0007352140382863581, 0.001732244505546987, 0.001258412259630859, 0.001005653408356011, 8.161044388543814e-05, 8.263323979917914e-05, 0.00043847630149684846, 0.0012328429147601128, 0.001311511266976595, 0.000874818884767592, 0.000137434370117262, 0.0002728512918110937, 8.21670182631351e-05, 0.0006013558013364673, 0.00022074446314945817, 0.0002187944483011961, 0.0004394759307615459, 0.00038238827255554497, 0.0005996020627208054, 0.00046618765918537974, 0.0013123718090355396, 0.0007387747173197567, 0.0010959503706544638, 0.0011423598043620586, 0.0017397450283169746, 0.0010947507107630372, 0.001092836493626237, 0.0006291889003477991, 0.000136574701173231, 0.00046492545516230166, 0.001253235270269215, 0.0005186580820009112, 0.001316078007221222, 0.0004662388237193227, 0.00032628202461637557, 0.0006568683311343193, 0.000384435843443498, 0.0005186297348700464, 0.0005202058819122612, 0.0005747597897425294, 0.001173196593299508, 0.0009306654101237655, 0.0008474807837046683, 0.0012615873711183667, 0.0011213828111067414, 0.001720700296573341, 0.0008985460153780878, 0.0010160927195101976, 0.0009558923775330186, 0.002103365259245038, 0.00120353396050632, 0.0009602194768376648, 0.0013417305890470743, 0.0011257551377639174, 0.0012310217134654522, 0.001829151762649417, 0.0017794081941246986, 0.0015347511507570744, 0.0015008868649601936, 0.0012074311962351203, 0.0011481055989861488, 0.0015265510883182287, 0.001388851087540388, 0.0014994547236710787, 0.0015326928114518523, 0.0014677103608846664, 0.0010444150539115071, 0.0016391651006415486, 0.0017472493927925825, 0.0011484510032460093, 0.0022071446292102337, 0.0018865345045924187, 0.0019045028602704406, 0.0016954714665189385, 0.0015583137283101678, 0.0018283530371263623, 0.0019347103079780936, 0.001483638770878315, 0.0018762244144454598, 0.0019102718215435743, 0.0016082429792732, 0.0016734335804358125, 0.001853113528341055, 0.0018410134362056851, 0.0017246571369469166, 0.0020805387757718563, 0.0021884231828153133, 0.0014970467891544104, 0.002660440979525447, 0.001756552723236382, 0.0025105744134634733, 0.0024789562448859215, 0.0026480304077267647, 0.0023984082508832216, 0.001807129941880703, 0.0018448152113705873, 0.0019737384282052517, 0.0021412100177258253, 0.0029111281037330627, 0.0027060271240770817, 0.0021590599790215492, 0.0029302225448191166, 0.002481931122019887, 0.00244841817766428, 0.0022256416268646717, 0.0024203856009989977, 0.002349149202927947, 0.002609101589769125, 0.002735678805038333, 0.0028052402194589376, 0.0032010944560170174, 0.002657825592905283, 0.0026552064809948206, 0.0031594715546816587, 0.0026493321638554335, 0.0021371033508330584, 0.0032830839045345783, 0.0027905451133847237, 0.0025052418932318687, 0.0029720135498791933, 0.0035099175292998552, 0.0027156767901033163, 0.003179434221237898, 0.0028685389552265406, 0.0030972480308264494, 0.0029792003333568573, 0.002915531164035201, 0.003560473211109638, 0.003500902559608221, 0.0028714414220303297, 0.0035344401840120554, 0.002976922085508704, 0.003020650241523981, 0.0033873300999403, 0.0030802779365330935, 0.0031938417814671993, 0.0028686956502497196, 0.003620604518800974, 0.003799371188506484, 0.003361941548064351, 0.0036104044411331415, 0.0036405441351234913, 0.0034258777741342783, 0.003205216024070978, 0.00335091189481318, 0.0035590112674981356, 0.0032032139133661985, 0.0025706940796226263, 0.0039884471334517, 0.0042137522250413895, 0.004356164485216141, 0.0034927825909107924, 0.003308994462713599, 0.0030282363295555115, 0.003300783922895789, 0.00333798467181623, 0.003905609715729952, 0.004021887667477131, 0.002995575312525034, 0.0033702978398650885, 0.0028264091815799475, 0.0035323111806064844, 0.0036117874551564455, 0.003943539224565029, 0.003299880074337125, 0.002973186783492565, 0.002940853126347065, 0.003360747592523694, 0.004254384897649288, 0.0033799437806010246, 0.0034787848126143217, 0.0037905643694102764, 0.0030337816569954157, 0.0030013644136488438, 0.002934240037575364, 0.00424698693677783, 0.004096345975995064, 0.004182384815067053, 0.004517744295299053, 0.00448776176199317, 0.004574291408061981, 0.004407203756272793, 0.005201525054872036, 0.004364072810858488, 0.00457622017711401, 0.004454038571566343, 0.004572424106299877, 0.004218369256705046, 0.003709967713803053, 0.003946544602513313, 0.004650144837796688, 0.003912769723683596, 0.004517453722655773, 0.0041682664304971695, 0.005620144307613373, 0.0046924022026360035, 0.005486366339027882, 0.0052253431640565395, 0.004872574005275965, 0.003995511680841446, 0.004764251410961151, 0.004647475201636553, 0.004223575349897146, 0.004580777138471603, 0.0043821209110319614, 0.0047107236459851265, 0.004522667732089758, 0.004116348456591368, 0.00449297484010458, 0.004739723633974791, 0.004295272286981344, 0.0033983089961111546, 0.0035422341898083687, 0.003990642726421356, 0.004769822116941214, 0.004568833392113447, 0.004292895086109638, 0.0038150257896631956, 0.004230811260640621, 0.0032695764675736427, 0.0034336165990680456, 0.003796154633164406, 0.0033514986280351877, 0.004245706833899021, 0.0036478331312537193, 0.0032830839045345783, 0.0035882547963410616, 0.003293682122603059, 0.0032970025204122066, 0.0036075622774660587, 0.004090537317097187, 0.0033347911667078733, 0.0037100689951330423, 0.004066269379109144, 0.004307054914534092, 0.0036619026213884354, 0.004595060367137194, 0.0028459622990339994, 0.004328886512666941, 0.003877239068970084, 0.0039855861105024815, 0.0034645497798919678, 0.003496885532513261, 0.003741227323189378, 0.003576596500352025, 0.0037556129973381758, 0.003880342235788703, 0.003816374810412526, 0.0032276595011353493, 0.0035002324730157852, 0.004237983375787735, 0.0038759689778089523, 0.00381908449344337, 0.0036489341873675585, 0.0035565770231187344, 0.0036826340947300196, 0.004214674700051546, 0.003803738160058856, 0.0037548646796494722, 0.003880417440086603, 0.003646854078397155, 0.003470596158877015, 0.00329583534039557, 0.0035900247748941183, 0.003362217452377081, 0.002780655398964882, 0.0036054737865924835, 0.0037922190967947245, 0.003568607149645686, 0.004010437987744808, 0.0043286485597491264, 0.004985755309462547, 0.003989289049059153, 0.003895854577422142, 0.00337689439766109, 0.0030962296295911074, 0.00347783206962049, 0.0032019102945923805, 0.003983628936111927, 0.0036876178346574306, 0.003956559579819441, 0.004312002100050449, 0.00479517737403512, 0.004078281112015247, 0.003935931716114283, 0.004819874186068773, 0.005367510486394167, 0.0036893258802592754, 0.005058791488409042, 0.004480996634811163, 0.004533537197858095, 0.0041514309123158455, 0.0035920918453484774, 0.0033439313992857933, 0.003447521012276411, 0.003582857083529234, 0.0030947881750762463, 0.0036045454908162355, 0.004322413820773363, 0.0042861043475568295, 0.00308136991225183, 0.00448209885507822, 0.003812843933701515, 0.0038694206159561872, 0.004278628621250391, 0.0031460304744541645, 0.003362711751833558, 0.004091945476830006, 0.003951376304030418, 0.003762702690437436, 0.005372806917876005, 0.004360266961157322, 0.004147113300859928, 0.003760525258257985, 0.00437936233356595, 0.004032036755234003, 0.003333242144435644, 0.0030591061804443598, 0.0034093388821929693, 0.003774404525756836, 0.0032667284831404686, 0.002874822122976184, 0.003056768560782075, 0.0038083840627223253, 0.0036997452843934298, 0.0030990319792181253, 0.0029732678085565567, 0.0035773778799921274, 0.003637755988165736, 0.00371594843454659, 0.003069067606702447, 0.004237867426127195, 0.0033244318328797817, 0.004100265447050333, 0.0032734116539359093, 0.0043286485597491264, 0.004066150169819593, 0.0038455245085060596, 0.003433804027736187, 0.003866681130602956, 0.003039430594071746, 0.003478213446214795, 0.0041788434609770775, 0.003577817464247346, 0.00437708618119359, 0.004528590012341738, 0.00456296605989337, 0.0047128451988101006, 0.004508715122938156, 0.004878048785030842, 0.004166323691606522, 0.004407323896884918, 0.004346875008195639, 0.0041063264943659306, 0.004555373918265104, 0.004470162093639374, 0.003732060082256794, 0.0035126893781125546, 0.004093439783900976, 0.0038693153765052557, 0.004805854521691799, 0.0043748123571276665, 0.004016827326267958, 0.004008835647255182, 0.004220912698656321, 0.0042328909039497375, 0.004888306371867657, 0.004628361668437719, 0.0049035632982850075, 0.004704209044575691, 0.0045447079464793205, 0.004364787135273218, 0.004888439550995827, 0.0048178997822105885, 0.006188152823597193, 0.004950901493430138, 0.004575786180794239, 0.003963048104196787, 0.004653836600482464, 0.004486987832933664, 0.005646310746669769, 0.005200635176151991, 0.004986301530152559, 0.004994677845388651, 0.004660993814468384, 0.004854766186326742, 0.004611044656485319, 0.0049817608669400215, 0.005025949329137802, 0.004578478168696165, 0.004534899722784758, 0.004411524161696434, 0.004997691605240107, 0.004490443971008062, 0.0042871274054050446, 0.003941209986805916, 0.005553111899644136, 0.004840827081352472, 0.004243785049766302, 0.004908376839011908, 0.004688181448727846, 0.004463185556232929, 0.00492895720526576, 0.0049141389317810535, 0.005236893892288208, 0.005335656460374594, 0.0054841614328324795, 0.004690227098762989, 0.004981148522347212, 0.0052584013901650906, 0.005064118187874556, 0.0057185073383152485, 0.005226719193160534, 0.005315505433827639, 0.00525279063731432, 0.004479894880205393, 0.004693938884884119, 0.005016860086470842, 0.005288120824843645, 0.0049986341036856174, 0.00518376287072897, 0.0059612519107759, 0.0055435700342059135, 0.004998764023184776, 0.005336471367627382, 0.005636731628328562, 0.004959907382726669, 0.005495252553373575, 0.005335011053830385, 0.005985905881971121, 0.005440279841423035, 0.005595633294433355, 0.005673875100910664, 0.005615680478513241, 0.005207481328397989, 0.005564799997955561, 0.005610021762549877, 0.00590486591681838, 0.005242607090622187, 0.004756827838718891, 0.00613999180495739, 0.006072270683944225, 0.004997951444238424, 0.005538881290704012, 0.006177187897264957, 0.006003383547067642, 0.005502477753907442, 0.0055576954036951065, 0.005362741183489561, 0.005737817380577326, 0.005953687708824873, 0.006683215498924255, 0.006017834413796663, 0.005797338206321001, 0.005120941437780857, 0.0061212219297885895, 0.006264875642955303, 0.007126085460186005, 0.006705164443701506, 0.005322943441569805, 0.005667196121066809, 0.007072562351822853, 0.006708663888275623, 0.005763767287135124, 0.0069406344555318356, 0.00560147175565362, 0.00660408241674304, 0.0063763693906366825, 0.00558339711278677, 0.006744027603417635, 0.006571771577000618, 0.0063246083445847034, 0.0063847205601632595, 0.00574398273602128, 0.006286901421844959, 0.007144415285438299, 0.006326352711766958, 0.006939682178199291, 0.006759715266525745, 0.0063917748630046844, 0.006878525484353304, 0.006289999466389418, 0.00613816361874342, 0.0072503420524299145, 0.005989669356495142, 0.007045138161629438, 0.006354597397148609, 0.006918325554579496, 0.007632131222635508, 0.006270364858210087, 0.007046501152217388, 0.007059143856167793, 0.0065832603722810745, 0.006448263768106699, 0.0073101394809782505, 0.006444917991757393, 0.006663025822490454, 0.007284136023372412, 0.007939106784760952, 0.009606963023543358, 0.00809694454073906, 0.007841416634619236, 0.008752434514462948, 0.00829214695841074, 0.00760144367814064, 0.007846650667488575, 0.006445093546062708, 0.007913175038993359, 0.007025186903774738, 0.007442192640155554, 0.007714824751019478, 0.006770406849682331, 0.006630137097090483, 0.007664513308554888, 0.008569473400712013, 0.007349726743996143, 0.007080952636897564, 0.007793273311108351, 0.0071791233494877815, 0.006955810356885195, 0.008572676219046116, 0.007081340067088604, 0.006935343146324158, 0.006445121485739946, 0.008107736706733704, 0.007567034102976322, 0.008295915089547634, 0.008489795960485935, 0.008072460070252419, 0.007295082323253155, 0.007617747411131859, 0.00801356602460146, 0.0074415309354662895, 0.008516911417245865, 0.0069829365238547325, 0.0077453842386603355, 0.008145414292812347, 0.006531624589115381, 0.00748441880568862, 0.00807591900229454, 0.007486836053431034, 0.007584024220705032, 0.007566826418042183, 0.007016971241682768, 0.007507672067731619, 0.00822458602488041, 0.008460236713290215, 0.008390458300709724, 0.00793628953397274, 0.008316745050251484, 0.007881746627390385, 0.007268156390637159]","[0.0, 0.0016708276234567165, 0.0014033874031156301, 0.0015953562688082457, 0.001441282220184803, 0.0011533360229805112, 0.0014410052681341767, 0.0017883583204820752, 0.0023075148928910494, 0.0014989622868597507, 0.0016344896284863353, 0.0019611611496657133, 0.0018252732697874308, 0.001960444962605834, 0.0016920148627832532, 0.0016902274219319224, 0.0019009581301361322, 0.0011153417872264981, 0.0019794749096035957, 0.0020968394819647074, 0.0013847751542925835, 0.0016353701939806342, 0.0015387870371341705, 0.0013460761401802301, 0.002191296312958002, 0.0019809978548437357, 0.001692535588517785, 0.0015579020837321877, 0.0018251329893246293, 0.0014792047441005707, 0.0014991062926128507, 0.0016332961386069655, 0.0015775904757902026, 0.0008260335307568312, 0.0019414862617850304, 0.001708154915831983, 0.0020167874172329903, 0.0013647285522893071, 0.0011740929912775755, 0.0018845791928470135, 0.001999461790546775, 0.0029621650464832783, 0.0022123469971120358, 0.0014809116255491972, 0.0006338231032714248, 0.0009417462279088795, 0.0020177175756543875, 0.0014244465855881572, 0.0009988283272832632, 0.0016534646274521947, 0.0020753266289830208, 0.0016907145036384463, 0.0016158507205545902, 0.002459268318489194, 0.002441040240228176, 0.002190748928114772, 0.002036268590018153, 0.0021333026234060526, 0.0022844637278467417, 0.0020008080173283815, 0.002077162731438875, 0.0015552995027974248, 0.001689027063548565, 0.002211878774687648, 0.0021329745650291443, 0.0020759650506079197, 0.001153202960267663, 0.0011724005453288555, 0.0009230768773704767, 0.0011531364871188998, 0.0013848550152033567, 0.0013073906302452087, 0.0007688020123168826, 0.001961048226803541, 0.001651940168812871, 0.0018846879247575998, 0.0028061813209205866, 0.0024397741071879864, 0.0025373392272740602, 0.0023239287547767162, 0.001862626406364143, 0.002135559916496277, 0.0031491827685385942, 0.0024223781656473875, 0.0024802444968372583, 0.0024038460105657578, 0.0022864388301968575, 0.0018825156148523092, 0.0035963612608611584, 0.0027481503784656525, 0.0020178337581455708, 0.0018447702750563622, 0.0015359509270638227, 0.001672112150117755, 0.001248823245987296, 0.0012497355928644538, 0.0014233231777325273, 0.002345071407034993, 0.0019212664337828755, 0.0012506493367254734, 0.0014608922647312284, 0.0019210451282560825, 0.0011333294678479433, 0.0017090077744796872, 0.002478624228388071, 0.0018059557769447565, 0.0018839994445443153, 0.0025776666589081287, 0.0020574152003973722, 0.0017869494622573256, 0.0013638895470649004, 0.001672112150117755, 0.0020767233800143003, 0.001940441783517599, 0.0017685506027191877, 0.002019230742007494, 0.001940180896781385, 0.002497694455087185, 0.0019030410330742598, 0.002480101538822055, 0.0019615383353084326, 0.002269841730594635, 0.0015379291726276278, 0.001944364164955914, 0.0020573758520185947, 0.0021162391640245914, 0.0018836373928934336, 0.002287977607920766, 0.0022871859837323427, 0.002651195041835308, 0.0016523844096809626, 0.002633248222991824, 0.0023834696039557457, 0.002036699093878269, 0.002805318683385849, 0.0026139267720282078, 0.003000173019245267, 0.0029249894432723522, 0.0031341933645308018, 0.0028249130118638277, 0.0028432561084628105, 0.0027316624764353037, 0.0028812354430556297, 0.0033662908244878054, 0.002287493785843253, 0.002422285033389926, 0.0025372905656695366, 0.0019402182660996914, 0.0020568615291267633, 0.00244287122040987, 0.002519957721233368, 0.0026666156481951475, 0.0030755626503378153, 0.003000173019245267, 0.00234615383669734, 0.0029215600807219744, 0.0028632371686398983, 0.0033258358016610146, 0.003213454270735383, 0.003132747719064355, 0.003134253667667508, 0.003671523416414857, 0.002710652304813266, 0.0043630353175103664, 0.0034976457245647907, 0.0037116101011633873, 0.0033476343378424644, 0.003270111046731472, 0.0032668435014784336, 0.002787443110719323, 0.0022875817958265543, 0.002806343138217926, 0.0033839645329862833, 0.003000000026077032, 0.0026340580079704523, 0.003538665594533086, 0.003499663667753339, 0.003672229591757059, 0.0034041081089526415, 0.0033842900302261114, 0.002958921017125249, 0.0036512480583041906, 0.0038014783058315516, 0.003920513670891523, 0.0035012795124202967, 0.003651950042694807, 0.0030142455361783504, 0.003266592277213931, 0.0030757994391024113, 0.00368699012324214, 0.003764669643715024, 0.0025769229978322983, 0.0035588559694588184, 0.002882564440369606, 0.003211229806765914, 0.0033995965495705605, 0.0033861782867461443, 0.0027686981484293938, 0.003493818687275052, 0.003384159877896309, 0.0037097549065947533, 0.003896577749401331, 0.002749788574874401, 0.0031720399856567383, 0.004072693642228842, 0.0028248587623238564, 0.0029047399293631315, 0.0028288813773542643, 0.003364543430507183, 0.0031537855975329876, 0.003116223495453596, 0.0025768736377358437, 0.003305403981357813, 0.0036742074880748987, 0.003576785558834672, 0.004305208567529917, 0.004457081668078899, 0.004227517172694206, 0.003325068624690175, 0.003518283599987626, 0.003384940791875124, 0.0038633786607533693, 0.004309183917939663, 0.0034433009568601847, 0.0029998268000781536, 0.0034212348982691765, 0.0031125713139772415, 0.005209134425967932, 0.004337978549301624, 0.004403761588037014, 0.004825809504836798, 0.004651788622140884, 0.003344931872561574, 0.003611356485635042, 0.003843640675768256, 0.0038820025511085987, 0.004077080171555281, 0.0033876774832606316, 0.004139869939535856, 0.003627917729318142, 0.0036725825630128384, 0.003575272858142853, 0.0036336372140794992, 0.0044661760330200195, 0.004153766203671694, 0.004265211522579193, 0.004039238207042217, 0.004403761588037014, 0.004996445029973984, 0.003847855608910322, 0.0039029454346746206, 0.004321604035794735, 0.002651347778737545, 0.0035173369105905294, 0.004325758665800095, 0.0035609793849289417, 0.004769138991832733, 0.003983450587838888, 0.003748198039829731, 0.004169628955423832, 0.004019462503492832, 0.0043423958122730255, 0.0042100814171135426, 0.0042293863371014595, 0.0034222870599478483, 0.00451636454090476, 0.004037840291857719, 0.004304215777665377, 0.003633846528828144, 0.004190051928162575, 0.0034948920365422964, 0.0039642066694796085, 0.0037317739333957434, 0.0035529094748198986, 0.0037693034391850233, 0.0042265430092811584, 0.004037064034491777, 0.004536019172519445, 0.004402914550155401, 0.003899421775713563, 0.0037476937286555767, 0.003097464330494404, 0.003286628518253565, 0.0040504480712115765, 0.003576510353013873, 0.0029787069652229548, 0.0038640471175312996, 0.0036327990237623453, 0.0031511192210018635, 0.0033876774832606316, 0.004112774506211281, 0.004439831245690584, 0.004169067833572626, 0.0037880241870880127, 0.0042695594020187855, 0.0037281166296452284, 0.003980998881161213, 0.0035355379804968834, 0.002458370989188552, 0.00315081630833447, 0.00399892358109355, 0.003576510353013873, 0.0041897292248904705, 0.0036876979283988476, 0.004152967594563961, 0.004149537067860365, 0.004171231761574745, 0.0037466136272996664, 0.003956212662160397, 0.0035179455298930407, 0.0035765792708843946, 0.0037279732059687376, 0.0033822087571024895, 0.004536193795502186, 0.00422646151855588, 0.004055040888488293, 0.0036898241378366947, 0.0034802337177097797, 0.0040541840717196465, 0.00395659264177084, 0.0037470455281436443, 0.004943543579429388, 0.0038638985715806484, 0.004113486036658287, 0.0037325634621083736, 0.0029218406416475773, 0.0031107186805456877, 0.004668946843594313, 0.003886708291247487, 0.0032866918481886387, 0.003095915773883462, 0.002979909535497427, 0.0030332119204103947, 0.0034622044768184423, 0.0046316757798194885, 0.0035343156196177006, 0.004094107076525688, 0.0034408518113195896, 0.003136123064905405, 0.0033693371806293726, 0.0032107974402606487, 0.0044027455151081085, 0.004559533670544624, 0.004115542862564325, 0.0036314029712229967, 0.0034417782444506884, 0.0038431237917393446, 0.004247467964887619, 0.004151530563831329, 0.0035756854340434074, 0.002979451324790716, 0.003498856211081147, 0.0031346152536571026, 0.0032870075665414333, 0.004034504294395447, 0.0027316096238791943, 0.0030182439368218184, 0.0028803502209484577, 0.0032672828529030085, 0.0038057896308600903, 0.003904597135260701, 0.002576427534222603, 0.0032274178229272366, 0.0033998580183833838, 0.0038005297537893057, 0.003268790664151311, 0.0034405875485390425, 0.0029189791530370712, 0.003425316419452429, 0.00380945042707026, 0.0032845453824847937, 0.002864778507500887, 0.0034405214246362448, 0.0031351579818874598, 0.0032124652061611414, 0.003344095777720213, 0.003537032986059785, 0.00378809729591012, 0.0038811820559203625, 0.0030368848238140345, 0.002960172249004245, 0.003863972844555974, 0.003999384585767984, 0.0035584450233727694, 0.003459608880802989, 0.0027488369960337877, 0.0030199275352060795, 0.0031355801038444042, 0.002594507299363613, 0.0023429098073393106, 0.0025162305682897568, 0.0029011124279350042, 0.0027870144695043564, 0.003288588020950556, 0.0035919402725994587, 0.004520969465374947, 0.0029432133305817842, 0.0028076921589672565, 0.00376336881890893, 0.003250625217333436, 0.0026726657524704933, 0.00261503248475492, 0.002750158542767167, 0.0035160528495907784, 0.0029211107175797224, 0.0034972424618899822, 0.0032858075574040413, 0.003595324233174324, 0.003708899486809969, 0.003498856211081147, 0.0026726145297288895, 0.0035742423497140408, 0.0034624706022441387, 0.0037513708230108023, 0.002963191131129861, 0.0038842419162392616, 0.004790303763002157, 0.003921417985111475, 0.003807252738624811, 0.0028831185773015022, 0.0034207087010145187, 0.0036331480368971825, 0.003418278181925416, 0.003709612414240837, 0.003495294600725174, 0.0036679275799542665, 0.0032086384017020464, 0.003556187730282545, 0.0032481260132044554, 0.00380169739946723, 0.0027888906188309193, 0.0026696373242884874, 0.003189853858202696, 0.003305086400359869, 0.0033696615137159824, 0.00338637363165617, 0.00336499628610909, 0.003385592019185424, 0.002921728417277336, 0.0033038167748600245, 0.0029004437383264303, 0.003267471445724368, 0.003075503744184971, 0.0034201829694211483, 0.0036139250732958317, 0.0029618232510983944, 0.003266529645770788, 0.0028453879058361053, 0.0025557263288646936, 0.004020622465759516, 0.003263582242652774, 0.0035714972764253616, 0.0039193835109472275, 0.004210323560982943, 0.0040599568746984005, 0.00375194801017642, 0.003476624144241214, 0.0040162187069654465, 0.0047524673864245415, 0.003885287791490555, 0.004303967580199242, 0.0036549707874655724, 0.0030740262009203434, 0.003288082079961896, 0.003731414908543229, 0.0034416457638144493, 0.003266341285780072, 0.0034037153236567974, 0.0032479388173669577, 0.0032476892229169607, 0.0034821084700524807, 0.0031523306388407946, 0.003825231222435832, 0.0034397279378026724, 0.0029796806629747152, 0.0033829889725893736, 0.0032305826898664236, 0.004208948463201523, 0.003577335737645626, 0.0037493512500077486, 0.0035797457676380873, 0.0033467975445091724, 0.004171873442828655, 0.003476089797914028, 0.0034958990290760994, 0.004456738941371441, 0.003921794705092907, 0.003342939307913184, 0.003594978479668498, 0.003962681628763676, 0.003671523416414857, 0.0034624040126800537, 0.002768751699477434, 0.0033984871115535498, 0.0031905281357467175, 0.003342939307913184, 0.003132627345621586, 0.0033679103944450617, 0.003287702798843384, 0.003591802204027772, 0.0034569513518363237, 0.0030593397095799446, 0.003477358492091298, 0.003670324105769396, 0.003038344904780388, 0.0035226179752498865, 0.003055635606870055, 0.0033064207527786493, 0.0035161878913640976, 0.0036139250732958317, 0.0035951861646026373, 0.003440785687416792, 0.003729478223249316, 0.0042307693511247635, 0.0035974683705717325, 0.003264710307121277, 0.004192872438579798, 0.00391742680221796, 0.003918781410902739, 0.003383704461157322, 0.003307501319795847, 0.0039581130258738995, 0.0033237270545214415, 0.003978168126195669, 0.0034583460073918104, 0.003035659436136484, 0.003923454321920872, 0.00380798545666039, 0.003574654459953308, 0.003980692941695452, 0.004034427460283041, 0.004802520386874676, 0.005614088848233223, 0.004476636648178101, 0.004579741507768631, 0.0047912257723510265, 0.004471739754080772, 0.0037882428150624037, 0.004499307833611965, 0.004715165589004755, 0.004512375686317682, 0.0044215465895831585, 0.004630874842405319, 0.004151291213929653, 0.004632566124200821, 0.0038623393047600985, 0.005112828221172094, 0.004921089392155409, 0.004037452396005392, 0.004245264921337366, 0.004054028075188398, 0.004571384750306606, 0.004476121161133051, 0.005287343170493841, 0.00395849347114563, 0.004402999300509691, 0.004016450140625238, 0.004728314466774464, 0.004359683487564325, 0.004599426407366991, 0.004821637645363808, 0.004919198341667652, 0.004478271584957838, 0.004422481637448072, 0.004801413509994745, 0.004208867438137531, 0.005729116499423981, 0.004557341802865267, 0.004517493303865194, 0.005252424161881208, 0.004732589237391949, 0.005517321173101664, 0.0055989534594118595, 0.004463254939764738, 0.004901301581412554, 0.005342147313058376, 0.0048587508499622345, 0.005768897943198681, 0.005655042361468077, 0.0045716483145952225, 0.005748120602220297, 0.005439169704914093, 0.0055955080315470695, 0.005670459941029549, 0.004860991146415472]","[0.0, 0.0007282838923856616, 8.827683632262051e-05, 0.0, 4.4138418161310256e-05, 2.2069209080655128e-05, 4.4138418161310256e-05, 2.2069209080655128e-05, 0.00022069209080655128, 8.827683632262051e-05, 0.0001544844708405435, 8.827683632262051e-05, 0.00013241525448393077, 6.620762724196538e-05, 6.620762724196538e-05, 2.2069209080655128e-05, 0.00011034604540327564, 8.827683632262051e-05, 0.000308968941681087, 0.00022069209080655128, 4.4138418161310256e-05, 4.4138418161310256e-05, 8.827683632262051e-05, 8.827683632262051e-05, 6.620762724196538e-05, 6.620762724196538e-05, 8.827683632262051e-05, 0.000308968941681087, 0.00017655367264524102, 0.00017655367264524102, 8.827683632262051e-05, 0.00022069209080655128, 0.0001544844708405435, 0.00019862287444993854, 0.00019862287444993854, 8.827683632262051e-05, 0.00019862287444993854, 0.00011034604540327564, 0.00013241525448393077, 0.00011034604540327564, 0.00024276130716316402, 0.001015183632262051, 0.00044138418161310256, 0.0001544844708405435, 0.00022069209080655128, 8.827683632262051e-05, 0.00039724574889987707, 0.00019862287444993854, 0.00022069209080655128, 0.00041931497980840504, 0.00017655367264524102, 0.00024276130716316402, 0.00017655367264524102, 0.0001544844708405435, 0.00044138418161310256, 0.000617937883362174, 0.00033103814348578453, 0.000308968941681087, 0.00046345338341780007, 0.0005958686233498156, 0.00041931497980840504, 0.0001544844708405435, 0.00041931497980840504, 0.0006841454887762666, 0.00048552261432632804, 0.0010372528340667486, 0.00046345338341780007, 0.00044138418161310256, 0.0007724222959950566, 0.00037517654709517956, 0.00044138418161310256, 0.00039724574889987707, 0.0008606991614215076, 0.0005737994215451181, 0.0007944914977997541, 0.0005737994215451181, 0.0011475988430902362, 0.001015183632262051, 0.0014124293811619282, 0.0009048375650309026, 0.0008606991614215076, 0.0009269067668356001, 0.002493820618838072, 0.0010813912376761436, 0.0008386299596168101, 0.0011255296412855387, 0.001235875766724348, 0.0013020833721384406, 0.002515889937058091, 0.0015007061883807182, 0.0014124293811619282, 0.0015227753901854157, 0.0013682909775525331, 0.0015889829955995083, 0.0017213983228430152, 0.0013682909775525331, 0.0014786369865760207, 0.0015889829955995083, 0.0013903601793572307, 0.0013241525739431381, 0.0014786369865760207, 0.0019420904573053122, 0.0014565677847713232, 0.001986228860914707, 0.002008297946304083, 0.0017434675246477127, 0.0018096751300618052, 0.0022289901971817017, 0.0021186440717428923, 0.0019200211390852928, 0.0015007061883807182, 0.001964159542694688, 0.0022289901971817017, 0.0018538135336712003, 0.0018096751300618052, 0.002096574753522873, 0.0018317443318665028, 0.0021186440717428923, 0.002471751533448696, 0.002493820618838072, 0.0019200211390852928, 0.0028248587623238564, 0.0023172670044004917, 0.002802789444103837, 0.002537959022447467, 0.002493820618838072, 0.0022289901971817017, 0.0023393360897898674, 0.0021407133899629116, 0.0020745056681334972, 0.0023172670044004917, 0.0028689971659332514, 0.0026924435514956713, 0.0024276128970086575, 0.0027807203587144613, 0.002515889937058091, 0.0028248587623238564, 0.0023614054080098867, 0.0026041667442768812, 0.0023614054080098867, 0.002802789444103837, 0.0029793432913720608, 0.002802789444103837, 0.003288312116637826, 0.0026483051478862762, 0.0027807203587144613, 0.0029352048877626657, 0.0023172670044004917, 0.0022951976861804724, 0.002714512636885047, 0.0030896891839802265, 0.0022510592825710773, 0.002670374233275652, 0.0033545198384672403, 0.002449682215228677, 0.0029131355695426464, 0.0029131355695426464, 0.0030455507803708315, 0.0027365819551050663, 0.0027807203587144613, 0.003244173713028431, 0.00381797319278121, 0.0027365819551050663, 0.0032662430312484503, 0.0031338275875896215, 0.0028469280805438757, 0.0033103814348578453, 0.0030455507803708315, 0.0029793432913720608, 0.0028689971659332514, 0.0030014123767614365, 0.0038400422781705856, 0.003155896905809641, 0.003244173713028431, 0.0031779659911990166, 0.0030014123767614365, 0.0028910664841532707, 0.003200035309419036, 0.003155896905809641, 0.0031779659911990166, 0.0026924435514956713, 0.0035752118565142155, 0.00381797319278121, 0.0035752118565142155, 0.0032662430312484503, 0.0031338275875896215, 0.0029572739731520414, 0.0034869350492954254, 0.0029352048877626657, 0.0037517654709517956, 0.0036634886637330055, 0.0027365819551050663, 0.003464865731075406, 0.0030896891839802265, 0.0035752118565142155, 0.00364141957834363, 0.0036634886637330055, 0.0032662430312484503, 0.0028689971659332514, 0.0028248587623238564, 0.0032221046276390553, 0.0037959038745611906, 0.003023481694981456, 0.003111758502200246, 0.00390625, 0.0033103814348578453, 0.0028248587623238564, 0.002449682215228677, 0.003420727327466011, 0.003111758502200246, 0.0035752118565142155, 0.00372969638556242, 0.004060734529048204, 0.003950388636440039, 0.0041490113362669945, 0.004480049479752779, 0.0037517654709517956, 0.00408280361443758, 0.00417108042165637, 0.00372969638556242, 0.003685557981953025, 0.0038841809146106243, 0.003950388636440039, 0.004457980394363403, 0.003509004134684801, 0.00399452680721879, 0.0034427966456860304, 0.005406956188380718, 0.00364141957834363, 0.004215219058096409, 0.004546257201582193, 0.004215219058096409, 0.0032221046276390553, 0.0041490113362669945, 0.0041490113362669945, 0.0034427966456860304, 0.0038400422781705856, 0.003685557981953025, 0.004502118565142155, 0.004700741730630398, 0.003685557981953025, 0.004369703587144613, 0.004700741730630398, 0.004016595892608166, 0.0036193502601236105, 0.004215219058096409, 0.00372969638556242, 0.004546257201582193, 0.004502118565142155, 0.0041490113362669945, 0.0037517654709517956, 0.00452418765053153, 0.0032662430312484503, 0.00364141957834363, 0.0037959038745611906, 0.0034427966456860304, 0.005473163910210133, 0.003464865731075406, 0.0035752118565142155, 0.0035752118565142155, 0.003155896905809641, 0.003376588923856616, 0.003509004134684801, 0.00372969638556242, 0.0030014123767614365, 0.0037076270673424006, 0.0033545198384672403, 0.003972457721829414, 0.00381797319278121, 0.0041490113362669945, 0.003155896905809641, 0.00408280361443758, 0.003685557981953025, 0.003464865731075406, 0.003244173713028431, 0.0032662430312484503, 0.0034869350492954254, 0.0037517654709517956, 0.003862111596390605, 0.00381797319278121, 0.0035531427711248398, 0.003288312116637826, 0.003773834789171815, 0.00372969638556242, 0.0035310734529048204, 0.003928319085389376, 0.003464865731075406, 0.003773834789171815, 0.003773834789171815, 0.0037076270673424006, 0.0037959038745611906, 0.003862111596390605, 0.004060734529048204, 0.003464865731075406, 0.00364141957834363, 0.0032221046276390553, 0.0035310734529048204, 0.004215219058096409, 0.0035531427711248398, 0.003685557981953025, 0.0037517654709517956, 0.0035531427711248398, 0.003972457721829414, 0.004215219058096409, 0.004833156708627939, 0.0036193502601236105, 0.004126942250877619, 0.0034869350492954254, 0.003376588923856616, 0.003288312116637826, 0.003597281174734235, 0.004789018537849188, 0.004568326286971569, 0.004480049479752779, 0.004480049479752779, 0.004987641237676144, 0.004060734529048204, 0.004391772672533989, 0.004921433515846729, 0.004877295345067978, 0.004215219058096409, 0.004877295345067978, 0.00425935722887516, 0.004700741730630398, 0.004325564950704575, 0.004193149507045746, 0.003928319085389376, 0.0038841809146106243, 0.004215219058096409, 0.0036193502601236105, 0.00399452680721879, 0.00408280361443758, 0.004634534008800983, 0.0034427966456860304, 0.004325564950704575, 0.00381797319278121, 0.004215219058096409, 0.003950388636440039, 0.003928319085389376, 0.00390625, 0.0042372881434857845, 0.00434763403609395, 0.00443591084331274, 0.004568326286971569, 0.003685557981953025, 0.004060734529048204, 0.004016595892608166, 0.004943503066897392, 0.00390625, 0.00381797319278121, 0.0038400422781705856, 0.004502118565142155, 0.00425935722887516, 0.004215219058096409, 0.004457980394363403, 0.0037517654709517956, 0.004215219058096409, 0.00399452680721879, 0.0042372881434857845, 0.0037959038745611906, 0.004391772672533989, 0.004480049479752779, 0.004104872699826956, 0.003862111596390605, 0.0041490113362669945, 0.00372969638556242, 0.004215219058096409, 0.003244173713028431, 0.004457980394363403, 0.004303495865315199, 0.0041490113362669945, 0.004104872699826956, 0.00452418765053153, 0.004303495865315199, 0.00408280361443758, 0.004325564950704575, 0.00399452680721879, 0.004325564950704575, 0.0047228108160197735, 0.00408280361443758, 0.004877295345067978, 0.004943503066897392, 0.005406956188380718, 0.004634534008800983, 0.004193149507045746, 0.00452418765053153, 0.004899364430457354, 0.004656603094190359, 0.00425935722887516, 0.004325564950704575, 0.0038841809146106243, 0.004215219058096409, 0.003928319085389376, 0.004943503066897392, 0.004502118565142155, 0.004281426779925823, 0.004104872699826956, 0.004126942250877619, 0.00443591084331274, 0.004568326286971569, 0.004612464923411608, 0.00443591084331274, 0.004502118565142155, 0.004855225794017315, 0.00425935722887516, 0.004744879901409149, 0.004612464923411608, 0.004965572152286768, 0.004413841757923365, 0.004457980394363403, 0.004215219058096409, 0.004590395372360945, 0.004568326286971569, 0.005230402573943138, 0.004766948986798525, 0.005318679381161928, 0.004656603094190359, 0.004590395372360945, 0.004700741730630398, 0.004457980394363403, 0.004899364430457354, 0.004700741730630398, 0.004789018537849188, 0.0048110876232385635, 0.0042372881434857845, 0.005142125766724348, 0.004303495865315199, 0.004700741730630398, 0.003950388636440039, 0.005009710323065519, 0.004391772672533989, 0.004899364430457354, 0.004325564950704575, 0.0042372881434857845, 0.004457980394363403, 0.004369703587144613, 0.004744879901409149, 0.0052745407447218895, 0.004921433515846729, 0.004965572152286768, 0.004833156708627939, 0.004744879901409149, 0.004766948986798525, 0.004987641237676144, 0.005406956188380718, 0.0047228108160197735, 0.005252471659332514, 0.0052966102957725525, 0.004590395372360945, 0.005715925246477127, 0.005473163910210133, 0.005164194852113724, 0.005053848959505558, 0.004855225794017315, 0.0053848871029913425, 0.004921433515846729, 0.004855225794017315, 0.005097987130284309, 0.004899364430457354, 0.004568326286971569, 0.005715925246477127, 0.004833156708627939, 0.005230402573943138, 0.0051862639375030994, 0.005097987130284309, 0.005142125766724348, 0.004766948986798525, 0.0052083334885537624, 0.005517302080988884, 0.0052745407447218895, 0.005406956188380718, 0.004700741730630398, 0.005075918044894934, 0.005583509802818298, 0.004744879901409149, 0.005097987130284309, 0.004921433515846729, 0.0063338628970086575, 0.005164194852113724, 0.005715925246477127, 0.005164194852113724, 0.005097987130284309, 0.0051862639375030994, 0.0052745407447218895, 0.005473163910210133, 0.006046963389962912, 0.005561440717428923, 0.004921433515846729, 0.004744879901409149, 0.005583509802818298, 0.0058704097755253315, 0.005451094824820757, 0.0051862639375030994, 0.004965572152286768, 0.0052745407447218895, 0.005164194852113724, 0.004965572152286768, 0.005120056681334972, 0.004568326286971569, 0.005318679381161928, 0.004943503066897392, 0.004126942250877619, 0.004789018537849188, 0.005164194852113724, 0.004391772672533989, 0.004855225794017315, 0.004546257201582193, 0.004833156708627939, 0.004987641237676144, 0.005075918044894934, 0.005031779874116182, 0.0051862639375030994, 0.0052745407447218895, 0.005649717524647713, 0.004789018537849188, 0.004855225794017315, 0.006024894304573536, 0.005230402573943138, 0.005120056681334972, 0.004943503066897392, 0.005318679381161928, 0.005318679381161928, 0.004877295345067978, 0.004678672179579735, 0.005473163910210133, 0.004789018537849188, 0.005252471659332514, 0.005142125766724348, 0.0047228108160197735, 0.005318679381161928, 0.005715925246477127, 0.005605578888207674, 0.006929731462150812, 0.0057821329683065414, 0.005671786610037088, 0.005451094824820757, 0.005451094824820757, 0.004766948986798525, 0.004789018537849188, 0.005230402573943138, 0.004700741730630398, 0.004457980394363403, 0.004987641237676144, 0.005340748466551304, 0.004921433515846729, 0.004656603094190359, 0.0053848871029913425, 0.0058483402244746685, 0.005252471659332514, 0.004678672179579735, 0.005583509802818298, 0.004457980394363403, 0.004899364430457354, 0.005671786610037088, 0.004126942250877619, 0.004833156708627939, 0.004612464923411608, 0.0052745407447218895, 0.004502118565142155, 0.004502118565142155, 0.004943503066897392, 0.0042372881434857845, 0.00425935722887516, 0.004369703587144613, 0.005120056681334972, 0.004060734529048204, 0.005230402573943138, 0.004281426779925823, 0.00425935722887516, 0.00434763403609395, 0.00399452680721879, 0.00425935722887516, 0.0042372881434857845, 0.0038400422781705856, 0.004480049479752779, 0.004413841757923365, 0.004038665443658829, 0.004281426779925823, 0.0042372881434857845, 0.003972457721829414, 0.004281426779925823, 0.004546257201582193, 0.0042372881434857845, 0.0037517654709517956, 0.003509004134684801]","[0.0, 0.02343815565109253, 0.02384144626557827, 0.02139914222061634, 0.026442106813192368, 0.023070434108376503, 0.023489080369472504, 0.027625005692243576, 0.02765708602964878, 0.025347163900732994, 0.026999788358807564, 0.02369867078959942, 0.022603370249271393, 0.0263212937861681, 0.020510654896497726, 0.016847623512148857, 0.019064931198954582, 0.006176730152219534, 0.019727494567632675, 0.026759084314107895, 0.01766372285783291, 0.022374562919139862, 0.011122814379632473, 0.02140374667942524, 0.024233514443039894, 0.026336723938584328, 0.022040195763111115, 0.020449044182896614, 0.02122071199119091, 0.017699114978313446, 0.008559983223676682, 0.014778947457671165, 0.01983959600329399, 0.01489954348653555, 0.026073940098285675, 0.02351018413901329, 0.022519471123814583, 0.008496787399053574, 0.00642860122025013, 0.01291482150554657, 0.021283714100718498, 0.018978040665388107, 0.017158199101686478, 0.005658415146172047, 0.0031136919278651476, 0.0044760508462786674, 0.01346928533166647, 0.004756980109959841, 0.005492202006280422, 0.008621767163276672, 0.009368173778057098, 0.012012644670903683, 0.012275573797523975, 0.024453671649098396, 0.01273618545383215, 0.020862948149442673, 0.023509513586759567, 0.021456684917211533, 0.021191054955124855, 0.013311496935784817, 0.013997737318277359, 0.005712845362722874, 0.004108842462301254, 0.015478047542273998, 0.007862758822739124, 0.0036752421874552965, 0.0010019203182309866, 0.0006768762250430882, 0.0005862892139703035, 0.0007916996255517006, 0.0014297127490863204, 0.0013393604895099998, 0.000921311613637954, 0.014854401350021362, 0.005652556195855141, 0.010865462012588978, 0.017784085124731064, 0.012576506473124027, 0.015208167023956776, 0.014394259080290794, 0.004707941319793463, 0.005461955443024635, 0.005544354673475027, 0.005868298467248678, 0.004339481238275766, 0.0037663208786398172, 0.002875479171052575, 0.0021792883053421974, 0.005128852091729641, 0.011847448535263538, 0.0015045135514810681, 0.0009675655164755881, 0.0011678831651806831, 0.0024754551704972982, 0.0006741951801814139, 0.0007174509228207171, 0.00273845624178648, 0.0037271243054419756, 0.0014815442264080048, 0.0014563914155587554, 0.0010078952182084322, 0.0010930340504273772, 0.0010065003298223019, 0.001054096152074635, 0.00205528293736279, 0.00215544574894011, 0.00243206974118948, 0.0017618928104639053, 0.0007992932805791497, 0.0007167552248574793, 0.0002081685233861208, 0.000455053144833073, 0.0011778563493862748, 0.0016013485146686435, 0.0013770656660199165, 0.0014333290746435523, 0.0016234442591667175, 0.0018420061096549034, 0.000627956644166261, 0.0006705783889628947, 0.0016049331752583385, 0.0011026293504983187, 0.0008339935448020697, 0.0006310209864750504, 0.001012359163723886, 0.0007988228462636471, 0.0006743940757587552, 0.0011718423338606954, 0.0014109055045992136, 0.002130592707544565, 0.0007086877012625337, 0.0005415764171630144, 0.0007133565377444029, 0.0008394191390834749, 0.0011297070886939764, 0.0014736221637576818, 0.0008726003579795361, 0.002747481456026435, 0.0024106577038764954, 0.00222623604349792, 0.0014996876707300544, 0.0014667672803625464, 0.0019410101231187582, 0.0020950306206941605, 0.0005434782360680401, 0.0006280355155467987, 0.0008438462973572314, 0.0007982187089510262, 0.0014633330283686519, 0.0010894614970311522, 0.0013409319799393415, 0.002068121451884508, 0.0014121361309662461, 0.0013523221714422107, 0.000792955223005265, 0.0010162171674892306, 0.0012598689645528793, 0.001796757453121245, 0.0015527298673987389, 0.002234778134152293, 0.001840696088038385, 0.0021799278911203146, 0.0025577591732144356, 0.004097332246601582, 0.006512331776320934, 0.008916666731238365, 0.0032760719768702984, 0.0017698368756100535, 0.0017659672303125262, 0.0013437473680824041, 0.0007095750770531595, 0.0008392430027015507, 0.0014687369111925364, 0.0012156780576333404, 0.0007955449400469661, 0.001964143943041563, 0.0032618241384625435, 0.004873375874012709, 0.0018418519757688046, 0.002671982394531369, 0.0013836477883160114, 0.001329953083768487, 0.002094767289236188, 0.001128951320424676, 0.0012200765777379274, 0.0020965239964425564, 0.0012625731760635972, 0.0012052699457854033, 0.0010055724997073412, 0.001344424788840115, 0.0012151177506893873, 0.0012068749638274312, 0.0018201828934252262, 0.0011262201005592942, 0.0016739203128963709, 0.0010892789578065276, 0.001480103237554431, 0.0006316321087069809, 0.003957062028348446, 0.005076564382761717, 0.003736826591193676, 0.0015010633505880833, 0.0005899953539483249, 0.0012965828645974398, 0.0020213930401951075, 0.0009232835145667195, 0.0018093074904754758, 0.0009185803937725723, 0.0013661767588928342, 0.0008824271499179304, 0.0006713098846375942, 0.0007181480177678168, 0.0004565262352116406, 0.0029549580067396164, 0.002874291967600584, 0.003587103448808193, 0.005599292926490307, 0.0034276635851711035, 0.0011335012968629599, 0.0013939343625679612, 0.0019239616813138127, 0.0024412828497588634, 0.0018162617925554514, 0.0008382932282984257, 0.0011730697005987167, 0.0013812732649967074, 0.0010855949949473143, 0.0022389916703104973, 0.003072261344641447, 0.0017110424814745784, 0.0020699561573565006, 0.003935524262487888, 0.0010471204295754433, 0.0016322089359164238, 0.002307337475940585, 0.0018786005675792694, 0.002780000912025571, 0.0012968541122972965, 0.001746241352520883, 0.0015603912761434913, 0.0029073441401124, 0.0026169170159846544, 0.0009702594834379852, 0.0034859110601246357, 0.007404899690300226, 0.004005734343081713, 0.003945018630474806, 0.012138070538640022, 0.010643647983670235, 0.009487103670835495, 0.004553311504423618, 0.0037846930790692568, 0.00029518429073505104, 0.003709949553012848, 0.007857142947614193, 0.0058610220439732075, 0.0021965953055769205, 0.005510101560503244, 0.004734967369586229, 0.0054375105537474155, 0.008192913606762886, 0.008981278166174889, 0.006836808752268553, 0.0048008086159825325, 0.0058324942365288734, 0.0075339870527386665, 0.005911986343562603, 0.004297994077205658, 0.006464341189712286, 0.003311674576252699, 0.006744020152837038, 0.001773199299350381, 0.004581371787935495, 0.004582912661135197, 0.0068184686824679375, 0.008945070207118988, 0.0051687187515199184, 0.0067678336054086685, 0.0039711035788059235, 0.0038622866850346327, 0.003125781426206231, 0.0016347402706742287, 0.001467689871788025, 0.007969129830598831, 0.0013036165619269013, 0.0011785503011196852, 0.0025034421123564243, 0.0027237681206315756, 0.0020392024889588356, 0.0016333709936589003, 0.0028065177612006664, 0.003552026813849807, 0.0030224162619560957, 0.002576884115114808, 0.006677450146526098, 0.009914357215166092, 0.007314219139516354, 0.004405655898153782, 0.0009690739098004997, 0.0010081916116178036, 0.0028617121279239655, 0.003922891803085804, 0.005122652277350426, 0.0012962576001882553, 0.0017982602585107088, 0.0017633723327890038, 0.004172403831034899, 0.003417806001380086, 0.003511705668643117, 0.0024268797133117914, 0.002037092112004757, 0.0009677691268734634, 0.0009240979561582208, 0.007110401056706905, 0.002249437849968672, 0.0005852598114870489, 0.0010468573309481144, 0.0019723037257790565, 0.0009125600918196142, 0.001213389215990901, 0.002614650409668684, 0.0026000167708843946, 0.0011756308376789093, 0.001218487392179668, 0.0021211993880569935, 0.0010439720936119556, 0.0013789068907499313, 0.006075079552829266, 0.0014673207188025117, 0.002635652432218194, 0.0023677980061620474, 0.0008886631694622338, 0.0010089969728142023, 0.0008002021349966526, 0.002602199325338006, 0.0017301038606092334, 0.004005396738648415, 0.0011381839867681265, 0.0022211046889424324, 0.002718660980463028, 0.0019164271652698517, 0.0025028157979249954, 0.008372907526791096, 0.0058907088823616505, 0.0032460689544677734, 0.003955563064664602, 0.003667945507913828, 0.005359909497201443, 0.0039235325530171394, 0.006298551335930824, 0.0008822046802379191, 0.0007157291984185576, 0.0007630675099790096, 0.0011401063529774547, 0.0025113008450716734, 0.0009673620224930346, 0.0005495666991919279, 0.0012956074206158519, 0.0014611948281526566, 0.002483583055436611, 0.0009665084071457386, 0.00046111925621517, 0.0008397363126277924, 0.0008051870972849429, 0.002600562060251832, 0.0011805379763245583, 0.000965048442594707, 0.0009681356605142355, 0.0009199247579090297, 0.00138818786945194, 0.0006736842333339155, 0.001306803897023201, 0.0009707917924970388, 0.001255440292879939, 0.002551980782300234, 0.0010922992369160056, 0.009592624381184578, 0.005531807895749807, 0.003156565595418215, 0.0013855649158358574, 0.0007943143718875945, 0.0022460694890469313, 0.0012225453974679112, 0.002005598973482847, 0.0015638868790119886, 0.0006292473990470171, 0.0007954117609187961, 0.0004630408948287368, 0.0004592518671415746, 0.0007090719300322235, 0.0005487084272317588, 0.0009254585602320731, 0.0010119322687387466, 0.0015129863750189543, 0.0034811056684702635, 0.00844257790595293, 0.0013896492309868336, 0.00112824363168329, 0.0014707118971273303, 0.0009664678364060819, 0.0005438875523395836, 0.00016871941625140607, 0.0005450048483908176, 0.0008371704025194049, 0.00033671449637040496, 0.001134501420892775, 0.0007601993274874985, 0.002191042061895132, 0.0018024059245362878, 0.0011391924927011132, 0.0007554137846454978, 0.001423368346877396, 0.0011419870425015688, 0.0013789068907499313, 0.00066996063105762, 0.000919886224437505, 0.005719813518226147, 0.0057837883941829205, 0.0018946570344269276, 0.0006794632063247263, 0.0008867494179867208, 0.0018062673043459654, 0.0010860030306503177, 0.0015959009760990739, 0.001434962498024106, 0.0016949870623648167, 0.001590357394888997, 0.0009572166018188, 0.0016332342056557536, 0.0017470881575718522, 0.0010900553315877914, 0.0014230705564841628, 0.0011371293803676963, 0.0017279164167121053, 0.001255492796190083, 0.0007053941953927279, 0.0009669146966189146, 0.000668225868139416, 0.0011823325185105205, 0.0006732589681632817, 0.001052897539921105, 0.0012874288950115442, 0.0010458937613293529, 0.000844344962388277, 0.0007541477680206299, 0.001047208090312779, 0.0008779631461948156, 0.0011314114090055227, 0.0009240591316483915, 0.001808774657547474, 0.001169639523141086, 0.0017699114978313446, 0.0021843232680112123, 0.0032142261043190956, 0.0022330658975988626, 0.002143127378076315, 0.0014579081907868385, 0.0019267016323283315, 0.009342269971966743, 0.005471502430737019, 0.003931182902306318, 0.002095118397846818, 0.0005916409427300096, 0.0015102572506293654, 0.004674652591347694, 0.002465215278789401, 0.0019382294267416, 0.0020642008166760206, 0.0012206927640363574, 0.0020256582647562027, 0.0009649269632063806, 0.001344933407381177, 0.002600998617708683, 0.0010937696788460016, 0.0007650784682482481, 0.0013864963548257947, 0.0010939998319372535, 0.002084574196487665, 0.001262095058336854, 0.0014652321115136147, 0.002035729121416807, 0.0015382056590169668, 0.0026676671113818884, 0.002086114836856723, 0.0014732499839738011, 0.003772319294512272, 0.0020696937572211027, 0.003754640696570277, 0.0028545043896883726, 0.00301722320728004, 0.0019756201654672623, 0.003057335503399372, 0.001251564477570355, 0.0011301799677312374, 0.0007519739447161555, 0.0011790962889790535, 0.0010080644860863686, 0.0009597730240784585, 0.0011668124934658408, 0.0016826519276946783, 0.0013070242712274194, 0.0019831224344670773, 0.0020175697281956673, 0.001179245300590992, 0.001883475692011416, 0.0012202305952087045, 0.0006706907879561186, 0.0006294058403000236, 0.0013055929448455572, 0.0017688678344711661, 0.0021286364644765854, 0.0015077902935445309, 0.0010993657633662224, 0.0015371193876489997, 0.00129118247423321, 0.0011704217176884413, 0.0015084219630807638, 0.0014154871460050344, 0.001344820368103683, 0.0013385200873017311, 0.0013755158288404346, 0.0009271355229429901, 0.002050638198852539, 0.002547611016780138, 0.0022338363341987133, 0.0015120967291295528, 0.0015954989939928055, 0.002001618267968297, 0.0023951593320816755, 0.002059169579297304, 0.003408947493880987, 0.003282552119344473, 0.003182579530403018, 0.0036045098677277565, 0.005805454216897488, 0.007134214974939823, 0.004375729244202375, 0.004613319877535105, 0.003943184390664101, 0.005546451546251774, 0.004163024015724659, 0.0031657591462135315, 0.003416382009163499, 0.0031429408118128777, 0.006474396679550409, 0.003721358021721244, 0.005987271666526794, 0.006613369099795818, 0.004198858048766851, 0.0056210411712527275, 0.0033548602368682623, 0.0039525688625872135, 0.003998989704996347, 0.0042038001120090485, 0.010989472270011902, 0.0036987222265452147, 0.004440872929990292, 0.006658066529780626, 0.002923732390627265, 0.005985266994684935, 0.005197329446673393, 0.004482238553464413, 0.003946926444768906, 0.00466562993824482, 0.0047792731784284115, 0.005099030677229166, 0.018752889707684517, 0.009825512766838074, 0.010232009924948215, 0.012966304086148739, 0.009697070345282555, 0.013601993210613728, 0.014974619261920452, 0.007849032059311867, 0.009595959447324276, 0.00881333276629448, 0.009895128197968006, 0.011705685406923294, 0.02176273986697197, 0.012913267128169537, 0.015242628753185272, 0.013749427162110806, 0.02291201613843441, 0.014358499087393284, 0.013435217551887035]","[0.0, 0.020369039848446846, 0.01774020679295063, 0.018951132893562317, 0.026852846145629883, 0.019182652235031128, 0.02318078652024269, 0.028765007853507996, 0.027341892942786217, 0.02744630165398121, 0.02579648233950138, 0.027956223115324974, 0.022822320461273193, 0.030761893838644028, 0.026168668642640114, 0.025862067937850952, 0.02698812633752823, 0.020085571333765984, 0.024218562990427017, 0.02774813212454319, 0.023509856313467026, 0.025473933666944504, 0.026462560519576073, 0.022108642384409904, 0.031696856021881104, 0.029565423727035522, 0.030749138444662094, 0.025525346398353577, 0.02713688090443611, 0.02631264179944992, 0.027906976640224457, 0.028182469308376312, 0.02725764364004135, 0.01866028644144535, 0.023588277399539948, 0.029351618140935898, 0.032203998416662216, 0.028363721445202827, 0.021392270922660828, 0.02709447406232357, 0.030349915847182274, 0.0325145348906517, 0.02501481957733631, 0.024225151166319847, 0.01484852097928524, 0.02003577910363674, 0.03258923068642616, 0.02598629891872406, 0.024296829476952553, 0.02998572215437889, 0.028295129537582397, 0.0230668094009161, 0.02514529600739479, 0.03537284955382347, 0.032423410564661026, 0.02947845868766308, 0.034928228706121445, 0.02695610746741295, 0.02918918989598751, 0.023942159488797188, 0.03324626013636589, 0.029870441183447838, 0.02405291609466076, 0.02896486222743988, 0.02948901616036892, 0.02514299377799034, 0.02038869634270668, 0.019556403160095215, 0.012476235628128052, 0.0184875950217247, 0.02492581680417061, 0.018443599343299866, 0.006676999852061272, 0.029751280322670937, 0.021421732380986214, 0.01960085518658161, 0.03302336856722832, 0.026907438412308693, 0.027999522164463997, 0.027308659628033638, 0.021345485001802444, 0.02689892239868641, 0.025302793830633163, 0.02880609594285488, 0.03271862119436264, 0.02554657682776451, 0.02688172087073326, 0.02117731422185898, 0.028031833469867706, 0.0368691086769104, 0.021360382437705994, 0.01766742207109928, 0.016924738883972168, 0.017886953428387642, 0.0054977890104055405, 0.007138608023524284, 0.021008901298046112, 0.027764538303017616, 0.016612883657217026, 0.016581783071160316, 0.016918860375881195, 0.018538452684879303, 0.018188346177339554, 0.018827198073267937, 0.022339027374982834, 0.019483624026179314, 0.02559828571975231, 0.025026686489582062, 0.01593530736863613, 0.01290014386177063, 0.007536786608397961, 0.01395182404667139, 0.014861490577459335, 0.018527373671531677, 0.017031919211149216, 0.02150665409862995, 0.020098097622394562, 0.02903919667005539, 0.014057660475373268, 0.023089740425348282, 0.023407794535160065, 0.01945433020591736, 0.015956180170178413, 0.014520127326250076, 0.014034252613782883, 0.014341589994728565, 0.007629037834703922, 0.012968471273779869, 0.019315607845783234, 0.024031564593315125, 0.01075268816202879, 0.01275479793548584, 0.017757119610905647, 0.018755227327346802, 0.01923076994717121, 0.024442588910460472, 0.020548759028315544, 0.0243786983191967, 0.024140801280736923, 0.026136770844459534, 0.019371040165424347, 0.018973082304000854, 0.027767803519964218, 0.017674969509243965, 0.012151537463068962, 0.00916775781661272, 0.012392755597829819, 0.015550239011645317, 0.016319237649440765, 0.016255339607596397, 0.015300675295293331, 0.02617611549794674, 0.022995352745056152, 0.02209288440644741, 0.014258555136620998, 0.01442364975810051, 0.01754804700613022, 0.018454577773809433, 0.02545282430946827, 0.025402504950761795, 0.025564804673194885, 0.0245413389056921, 0.024526728317141533, 0.03350023925304413, 0.02887483686208725, 0.031246287748217583, 0.029150374233722687, 0.021233689039945602, 0.02578181028366089, 0.01929260417819023, 0.00869461614638567, 0.011917530559003353, 0.020223651081323624, 0.023288972675800323, 0.017132658511400223, 0.027913054451346397, 0.028890738263726234, 0.02736792154610157, 0.023871734738349915, 0.02544287219643593, 0.017921147868037224, 0.020766200497746468, 0.024486856535077095, 0.022548317909240723, 0.016241850331425667, 0.02550959587097168, 0.021248498931527138, 0.021136851981282234, 0.020483506843447685, 0.02625584416091442, 0.022147729992866516, 0.017466729506850243, 0.023360606282949448, 0.020408162847161293, 0.01878492534160614, 0.01784217543900013, 0.02132701314985752, 0.016297882422804832, 0.02799135074019432, 0.026400284841656685, 0.02752949483692646, 0.018151219934225082, 0.011055635288357735, 0.022383617237210274, 0.02320019155740738, 0.012652183882892132, 0.021110055968165398, 0.018693801015615463, 0.01820778287947178, 0.019845513626933098, 0.013285883702337742, 0.010576351545751095, 0.009069212712347507, 0.018145160749554634, 0.02186831459403038, 0.025757214054465294, 0.028694404289126396, 0.023758357390761375, 0.01716942898929119, 0.014996428973972797, 0.019950125366449356, 0.028132077306509018, 0.0184965617954731, 0.01174237858504057, 0.018186140805482864, 0.019194087013602257, 0.01852073147892952, 0.025500476360321045, 0.026689108461141586, 0.021865716204047203, 0.02724893018603325, 0.0297867264598608, 0.0213171374052763, 0.02153625339269638, 0.024576472118496895, 0.023744182661175728, 0.024352578446269035, 0.01819685660302639, 0.019570855423808098, 0.014182692393660545, 0.024021880701184273, 0.023593898862600327, 0.01190192811191082, 0.023612750694155693, 0.031253714114427567, 0.02366439625620842, 0.02516021952033043, 0.02709447406232357, 0.03353622183203697, 0.028913378715515137, 0.024988101795315742, 0.023587163537740707, 0.006573443301022053, 0.023247497156262398, 0.026898356154561043, 0.028473535552620888, 0.022578729316592216, 0.028990652412176132, 0.025861041620373726, 0.029619013890624046, 0.02969473786652088, 0.03046230971813202, 0.022743510082364082, 0.027503274381160736, 0.028676820918917656, 0.029345102608203888, 0.026879161596298218, 0.026032960042357445, 0.03462224826216698, 0.023485932499170303, 0.02865707501769066, 0.02615075185894966, 0.02846975065767765, 0.029834652319550514, 0.028157301247119904, 0.030009565874934196, 0.0260776374489069, 0.03087744489312172, 0.025580011308193207, 0.024769654497504234, 0.02218511514365673, 0.022635696455836296, 0.016573267057538033, 0.027393968775868416, 0.018906064331531525, 0.016825776547193527, 0.02119552344083786, 0.025148987770080566, 0.022100107744336128, 0.019614793360233307, 0.0249314084649086, 0.022057946771383286, 0.021276596933603287, 0.02104637399315834, 0.024821853265166283, 0.02876238152384758, 0.027200380340218544, 0.02197539620101452, 0.012456580996513367, 0.016853932291269302, 0.01999523863196373, 0.020808560773730278, 0.021469466388225555, 0.019398873671889305, 0.02105889283120632, 0.022602248936891556, 0.027999522164463997, 0.02580953575670719, 0.026000479236245155, 0.02143622748553753, 0.02187611535191536, 0.018144920468330383, 0.017543859779834747, 0.029320620000362396, 0.025708477944135666, 0.012407539412379265, 0.018971484154462814, 0.02271646074950695, 0.0109903234988451, 0.02035684324800968, 0.02149253711104393, 0.028117213398218155, 0.016317293047904968, 0.01656339317560196, 0.01812581531703472, 0.009649749845266342, 0.010793955996632576, 0.02544802986085415, 0.02072477526962757, 0.022412970662117004, 0.01890156976878643, 0.009879776276648045, 0.011890463531017303, 0.015903156250715256, 0.023857805877923965, 0.017833633348345757, 0.02431466057896614, 0.018584704026579857, 0.01931050792336464, 0.01686917617917061, 0.018324607983231544, 0.022134952247142792, 0.028920231387019157, 0.0268472321331501, 0.02497013285756111, 0.025808753445744514, 0.023164179176092148, 0.03041144832968712, 0.02956957183778286, 0.027506548911333084, 0.00798284262418747, 0.012025240808725357, 0.013426805846393108, 0.02108900249004364, 0.02952779456973076, 0.019686907529830933, 0.017383022233843803, 0.020625974982976913, 0.021228384226560593, 0.024910608306527138, 0.018632803112268448, 0.007851534523069859, 0.01805788092315197, 0.017833633348345757, 0.02476556971669197, 0.02176239714026451, 0.023003576323390007, 0.02025650255382061, 0.022011835128068924, 0.02357819862663746, 0.013287047855556011, 0.019988102838397026, 0.018953390419483185, 0.020415430888533592, 0.024552246555685997, 0.01645992323756218, 0.02989874966442585, 0.021638330072164536, 0.019474312663078308, 0.013470020145177841, 0.008102955296635628, 0.017268072813749313, 0.01510466169565916, 0.021715912967920303, 0.01895791105926037, 0.0048844413831830025, 0.013407688587903976, 0.013045541010797024, 0.00536800641566515, 0.006112176459282637, 0.0076610008254647255, 0.008485717698931694, 0.012158779427409172, 0.014849132858216763, 0.02202274091541767, 0.029279280453920364, 0.01624762825667858, 0.012832699343562126, 0.012717456556856632, 0.011393306776881218, 0.006065651774406433, 0.002140563679859042, 0.005820168647915125, 0.014936073683202267, 0.004534065257757902, 0.015164178796112537, 0.01241939328610897, 0.017729653045535088, 0.014560209587216377, 0.00940588116645813, 0.0035684548784047365, 0.00883371103554964, 0.007117437664419413, 0.006164789665490389, 0.003907637670636177, 0.00986802950501442, 0.02275960147380829, 0.022635215893387794, 0.0152199761942029, 0.005364167038351297, 0.0077565633691847324, 0.010125074535608292, 0.010907347314059734, 0.01311240904033184, 0.011861969716846943, 0.012465540319681168, 0.01541402842849493, 0.011198475025594234, 0.020987359806895256, 0.01343892514705658, 0.006885089911520481, 0.012336806394159794, 0.010148041881620884, 0.015641789883375168, 0.00907804723829031, 0.008883098140358925, 0.008917954750359058, 0.0061677140183746815, 0.008341277949512005, 0.0038300419691950083, 0.00933572743088007, 0.011921793222427368, 0.008341277949512005, 0.00860009528696537, 0.00512209627777338, 0.008075051009654999, 0.007404753472656012, 0.01213996671140194, 0.008357211016118526, 0.019563671201467514, 0.016214268282055855, 0.011874775402247906, 0.016612883657217026, 0.022140221670269966, 0.020959148183465004, 0.01776619628071785, 0.011850610375404358, 0.017786797136068344, 0.028662797063589096, 0.020296735689044, 0.02413092739880085, 0.011148007586598396, 0.004780685994774103, 0.010582639835774899, 0.016854599118232727, 0.013442778959870338, 0.00919952243566513, 0.013548847287893295, 0.009662412106990814, 0.01241198182106018, 0.010194404982030392, 0.013824335299432278, 0.021803883835673332, 0.008953086100518703, 0.007621769793331623, 0.013824335299432278, 0.014382503926753998, 0.0227814894169569, 0.01650439389050007, 0.013441179879009724, 0.019510464742779732, 0.016733918339014053, 0.021783120930194855, 0.016175413504242897, 0.010652304627001286, 0.018062200397253036, 0.018097393214702606, 0.019961750134825706, 0.022264555096626282, 0.016249554231762886, 0.018584704026579857, 0.018388895317912102, 0.00606637354940176, 0.014038876630365849, 0.00786932185292244, 0.006813291925936937, 0.004652272444218397, 0.006741573102772236, 0.005592575296759605, 0.008499939925968647, 0.008985264226794243, 0.01089530996978283, 0.010639569722115993, 0.007998090237379074, 0.01117185689508915, 0.0021261516958475113, 0.0020283975172787905, 0.0032158170361071825, 0.006689762230962515, 0.009053007699549198, 0.009283503517508507, 0.007863695733249187, 0.010002382099628448, 0.010456273332238197, 0.00818020198494196, 0.00671140942722559, 0.014127982780337334, 0.011509411036968231, 0.008374207653105259, 0.00833134911954403, 0.0070129563100636005, 0.007406522519886494, 0.008845326490700245, 0.009544260799884796, 0.009560229256749153, 0.006214149296283722, 0.008668804541230202, 0.006413301452994347, 0.009662412106990814, 0.012240047566592693, 0.017575323581695557, 0.01483253575861454, 0.015706807374954224, 0.012308795005083084, 0.01775568164885044, 0.02012787200510502, 0.013235471211373806, 0.01188636664301157, 0.010823025368154049, 0.01785714365541935, 0.013554036617279053, 0.012502976693212986, 0.01994268037378788, 0.013478053733706474, 0.016918860375881195, 0.013731342740356922, 0.017163289710879326, 0.01786777749657631, 0.01428061444312334, 0.01651112735271454, 0.012426813133060932, 0.018077336251735687, 0.01578569784760475, 0.012968471273779869, 0.021728748455643654, 0.0161789208650589, 0.016467779874801636, 0.01478126086294651, 0.017848586663603783, 0.015142552554607391, 0.01746620424091816, 0.016955222934484482, 0.013830929063260555, 0.012843381613492966, 0.013416387140750885, 0.017654776573181152, 0.029520295560359955, 0.024488825350999832, 0.019414005801081657, 0.02144549787044525, 0.020151730626821518, 0.027506548911333084, 0.029732290655374527, 0.018018018454313278, 0.01811896450817585, 0.0247105173766613, 0.023606950417160988, 0.028765007853507996, 0.028479885309934616, 0.030157970264554024, 0.03047981858253479, 0.02444550395011902, 0.02841854840517044, 0.028479505330324173, 0.0273628868162632]","[0.0, 0.01443326286971569, 0.013837394304573536, 0.005892478860914707, 0.01622086949646473, 0.011056673713028431, 0.00834216084331274, 0.014764300547540188, 0.002714512636885047, 0.0026483051478862762, 0.004038665443658829, 0.003111758502200246, 0.00417108042165637, 0.004303495865315199, 0.0033103814348578453, 0.0013903601793572307, 0.003244173713028431, 0.00026483050896786153, 0.004899364430457354, 0.005561440717428923, 0.0008606991614215076, 0.004369703587144613, 0.0007944914977997541, 0.006620762869715691, 0.0029131355695426464, 0.007415254134684801, 0.004766948986798525, 0.003244173713028431, 0.002515889937058091, 0.0013903601793572307, 0.0011917372466996312, 0.0009269067668356001, 0.0016551907174289227, 0.004369703587144613, 0.006819385569542646, 0.0052966102957725525, 0.003509004134684801, 0.0009931144304573536, 0.0007944914977997541, 0.0007944914977997541, 0.003509004134684801, 0.002714512636885047, 0.001986228860914707, 0.00033103814348578453, 0.00039724574889987707, 0.00033103814348578453, 0.0013903601793572307, 0.00046345338341780007, 0.00039724574889987707, 0.0012579449685290456, 0.0022510592825710773, 0.0006620762869715691, 0.0015889829955995083, 0.007018008269369602, 0.0022510592825710773, 0.015293962322175503, 0.012380826286971569, 0.008474576286971569, 0.006355931982398033, 0.002449682215228677, 0.0033103814348578453, 0.0010593220358714461, 0.0016551907174289227, 0.003111758502200246, 0.0013241525739431381, 0.0011255296412855387, 0.0008606991614215076, 0.0010593220358714461, 0.0008606991614215076, 0.0007282838923856616, 0.0014565677847713232, 0.00046345338341780007, 0.00013241525448393077, 0.0030455507803708315, 0.0005958686233498156, 0.0006620762869715691, 0.002052436349913478, 0.0011917372466996312, 0.0008606991614215076, 0.0023834744933992624, 0.0008606991614215076, 0.0008606991614215076, 0.0006620762869715691, 0.0011917372466996312, 0.0015227753901854157, 0.0015227753901854157, 0.0011917372466996312, 0.0006620762869715691, 0.0015889829955995083, 0.006289724726229906, 0.0007944914977997541, 0.0005958686233498156, 0.0006620762869715691, 0.00046345338341780007, 0.00039724574889987707, 0.00039724574889987707, 0.0013903601793572307, 0.0011255296412855387, 0.00046345338341780007, 0.00039724574889987707, 0.00033103814348578453, 0.0006620762869715691, 0.00026483050896786153, 0.00046345338341780007, 0.00046345338341780007, 0.00039724574889987707, 0.0006620762869715691, 0.00026483050896786153, 0.00039724574889987707, 0.00033103814348578453, 0.00013241525448393077, 0.0005296610179357231, 0.00033103814348578453, 0.0005958686233498156, 0.00033103814348578453, 0.0006620762869715691, 0.00026483050896786153, 0.0007282838923856616, 0.00039724574889987707, 0.0005296610179357231, 0.0008606991614215076, 0.00039724574889987707, 0.00046345338341780007, 0.00033103814348578453, 0.00039724574889987707, 0.0005958686233498156, 0.00033103814348578453, 0.0007282838923856616, 0.00039724574889987707, 0.0007282838923856616, 0.0006620762869715691, 0.00019862287444993854, 0.0005296610179357231, 0.0005958686233498156, 0.00039724574889987707, 0.0005296610179357231, 0.00039724574889987707, 0.0011917372466996312, 0.0005958686233498156, 0.0005296610179357231, 0.0005296610179357231, 0.0005296610179357231, 0.0005296610179357231, 0.0005958686233498156, 0.0005296610179357231, 0.00039724574889987707, 0.00039724574889987707, 0.00033103814348578453, 0.0005958686233498156, 0.0005958686233498156, 