last_val_loss,dataset,ul2,causal_denoisers,noncausal_masking,causal_divider,s_divider,r_divider,x_divider,randomize_denoiser_settings,randomize_mask_width,no_special_tokens,alternate_denoisers,progressive_tasks,model_scale,depth,width,num_params,num_non_embedding_params,num_heads,linear_value,seed,run_num,max_epochs,max_steps,max_tokens,max_time_seconds,gpu_capacity_scalar,train_loss_causal,train_pplx_causal,train_acc_causal,train_loss_s,train_pplx_s,train_loss_r,train_pplx_r,train_loss_x,train_pplx_x,train_acc_x_causal,train_acc_r_causal,train_acc_s_causal,train_acc_x_masked,train_acc_r_masked,train_acc_s_masked,val_loss_causal,val_pplx_causal,val_acc_causal,val_loss_s,val_pplx_s,val_loss_r,val_pplx_r,val_loss_x,val_pplx_x,grad_norm,cumulative_time,tokens_seen,epoch,batch_size,seq_length,learning_rate,weight_decay
3.71875,fineweb,false,false,false,1.0,0.0,0.0,0.0,false,false,false,false,false,1.0001001527155036,8,384,46014344,7376264,6,false,1600,1,1.0,1000000000,1000000000000,1000000000,1.9,"[10.9375, 6.84375, 6.40625, 6.21875, 6.09375, 5.9375, 5.9375, 5.71875, 5.65625, 5.71875, 5.5625, 5.4375, 5.34375, 5.40625, 5.3125, 5.21875, 5.28125, 5.15625, 5.21875, 5.09375, 5.0, 5.0625, 4.96875, 4.9375, 4.9375, 5.0, 4.90625, 4.875, 4.875, 4.90625, 4.75, 4.75, 4.71875, 4.8125, 4.71875, 4.75, 4.71875, 4.65625, 4.65625, 4.625, 4.59375, 4.6875, 4.65625, 4.625, 4.59375, 4.625, 4.625, 4.59375, 4.59375, 4.59375, 4.5625, 4.5625, 4.46875, 4.4375, 4.5625, 4.5625, 4.46875, 4.53125, 4.5, 4.53125, 4.53125, 4.46875, 4.4375, 4.4375, 4.46875, 4.46875, 4.5, 4.4375, 4.46875, 4.40625, 4.375, 4.4375, 4.40625, 4.3125, 4.375, 4.375, 4.3125, 4.3125, 4.34375, 4.25, 4.3125, 4.25, 4.28125, 4.3125, 4.25, 4.1875, 4.25, 4.1875, 4.21875, 4.1875, 4.21875, 4.09375, 4.1875, 4.15625, 4.15625, 4.21875, 4.125, 4.125, 4.125, 4.0625, 4.09375, 4.09375, 4.125, 4.03125, 4.0625, 4.03125, 3.984375, 4.0625, 4.09375, 4.0625, 4.03125, 3.984375, 3.953125, 3.96875, 4.0625, 4.0625, 4.0, 3.984375, 4.0, 3.984375, 3.953125, 4.125, 3.90625, 3.96875, 3.96875, 3.859375, 3.96875, 3.953125, 3.890625, 3.921875, 3.84375, 3.890625, 3.859375, 3.78125, 3.859375, 3.875, 3.703125, 3.84375, 3.828125, 3.859375, 3.765625, 3.765625, 3.8125, 3.828125, 3.71875, 3.796875, 3.734375, 3.734375, 3.734375, 3.796875, 3.78125, 3.734375, 3.734375, 3.703125, 3.765625, 3.75, 3.71875, 3.796875, 3.703125, 3.71875, 3.75, 3.8125, 3.734375, 3.734375, 3.75, 3.8125, 3.734375, 3.703125, 3.828125, 3.703125, 3.703125, 3.765625, 3.734375, 3.671875, 3.640625, 3.65625, 3.625, 3.703125, 3.6875, 3.71875, 3.703125, 3.65625, 3.71875, 3.703125, 3.71875, 3.640625, 3.609375, 3.625]","[56320.0, 940.0, 608.0, 502.0, 444.0, 380.0, 380.0, 304.0, 286.0, 304.0, 260.0, 230.0, 209.0, 223.0, 203.0, 185.0, 197.0, 174.0, 185.0, 163.0, 149.0, 158.0, 144.0, 140.0, 140.0, 149.0, 135.0, 131.0, 131.0, 135.0, 115.5, 115.5, 112.0, 123.0, 112.0, 115.5, 112.0, 105.5, 105.5, 102.0, 99.0, 108.5, 105.5, 102.0, 99.0, 102.0, 102.0, 99.0, 99.0, 99.0, 96.0, 96.0, 87.5, 84.5, 96.0, 96.0, 87.5, 93.0, 90.0, 93.0, 93.0, 87.5, 84.5, 84.5, 87.5, 87.5, 90.0, 84.5, 87.5, 82.0, 79.5, 84.5, 82.0, 74.5, 79.5, 79.5, 74.5, 74.5, 77.0, 70.0, 74.5, 70.0, 72.5, 74.5, 70.0, 66.0, 70.0, 66.0, 68.0, 66.0, 68.0, 60.0, 66.0, 64.0, 64.0, 68.0, 62.0, 62.0, 62.0, 58.25, 60.0, 60.0, 62.0, 56.25, 58.25, 56.25, 53.75, 58.25, 60.0, 58.25, 56.25, 53.75, 52.25, 53.0, 58.25, 58.25, 54.75, 53.75, 54.75, 53.75, 52.25, 62.0, 49.75, 53.0, 53.0, 47.5, 53.0, 52.25, 49.0, 50.5, 46.75, 49.0, 47.5, 44.0, 47.5, 48.25, 40.5, 46.75, 46.0, 47.5, 43.25, 43.25, 45.25, 46.0, 41.25, 44.5, 42.0, 42.0, 42.0, 44.5, 44.0, 42.0, 42.0, 40.5, 43.25, 42.5, 41.25, 44.5, 40.5, 41.25, 42.5, 45.25, 42.0, 42.0, 42.5, 45.25, 42.0, 40.5, 46.0, 40.5, 40.5, 43.25, 42.0, 39.25, 38.25, 38.75, 37.5, 40.5, 40.0, 41.25, 40.5, 38.75, 41.25, 40.5, 41.25, 38.25, 37.0, 37.5]","[9.212853910867125e-06, 0.08522810786962509, 0.09072818607091904, 0.10412367433309555, 0.10388413816690445, 0.10581883788108826, 0.11013045907020569, 0.12241119146347046, 0.11660709232091904, 0.12153597176074982, 0.12030144780874252, 0.1286851465702057, 0.13532760739326477, 0.1259673535823822, 0.13409309089183807, 0.12688863277435303, 0.13469192385673523, 0.14192400872707367, 0.13224130868911743, 0.14492741227149963, 0.14494583010673523, 0.14117777347564697, 0.13907724618911743, 0.16129864752292633, 0.15373489260673523, 0.14469708502292633, 0.15364275872707367, 0.15391914546489716, 0.15200287103652954, 0.15754900872707367, 0.14276237785816193, 0.1603865772485733, 0.15302550792694092, 0.14322303235530853, 0.16197118163108826, 0.1596495509147644, 0.16172243654727936, 0.1686965674161911, 0.1621278077363968, 0.1816498339176178, 0.15175412595272064, 0.15678434073925018, 0.1562223583459854, 0.16096697747707367, 0.16711196303367615, 0.16705667972564697, 0.17890441417694092, 0.15273068845272064, 0.15560510754585266, 0.15690411627292633, 0.16341760754585266, 0.16548128426074982, 0.17152491211891174, 0.16814379394054413, 0.1530807763338089, 0.1662920117378235, 0.1609117090702057, 0.16059847176074982, 0.16817143559455872, 0.14977335929870605, 0.1582123339176178, 0.1777528077363968, 0.17096292972564697, 0.16541679203510284, 0.16047869622707367, 0.16054318845272064, 0.1699310839176178, 0.15264777839183807, 0.16107754409313202, 0.16805167496204376, 0.18769347667694092, 0.1874815821647644, 0.17957694828510284, 0.18303176760673523, 0.1696639209985733, 0.18084831535816193, 0.1838609278202057, 0.16420069336891174, 0.16075508296489716, 0.18144716322422028, 0.18763819336891174, 0.18352004885673523, 0.1816129833459854, 0.19220776855945587, 0.16858601570129395, 0.17784492671489716, 0.1713775098323822, 0.19718271493911743, 0.1809035986661911, 0.18560215830802917, 0.18036925792694092, 0.19415168464183807, 0.19055867195129395, 0.18812647461891174, 0.20881853997707367, 0.19111144542694092, 0.1930922120809555, 0.18081146478652954, 0.1794756054878235, 0.20184440910816193, 0.2077682763338089, 0.18565742671489716, 0.1967497020959854, 0.20571380853652954, 0.17905181646347046, 0.1946123242378235, 0.1943267285823822, 0.17718160152435303, 0.1816682666540146, 0.19879496097564697, 0.20031508803367615, 0.19475972652435303, 0.20659825205802917, 0.1877487450838089, 0.1765459179878235, 0.1811799854040146, 0.1843584179878235, 0.1945570558309555, 0.1887160986661911, 0.19425302743911743, 0.1875092089176178, 0.2026183009147644, 0.18948997557163239, 0.20177070796489716, 0.18115234375, 0.19107459485530853, 0.20784197747707367, 0.19341465830802917, 0.21222729980945587, 0.20619288086891174, 0.1894439160823822, 0.20170623064041138, 0.18981242179870605, 0.20939895510673523, 0.21614275872707367, 0.2019365429878235, 0.2077498584985733, 0.22125589847564697, 0.2140883058309555, 0.19921875, 0.21453972160816193, 0.20560325682163239, 0.19978995621204376, 0.20350272953510284, 0.22036224603652954, 0.21304725110530853, 0.22179946303367615, 0.2170548439025879, 0.21110333502292633, 0.1833265870809555, 0.20592571794986725, 0.22050966322422028, 0.1974959522485733, 0.21734043955802917, 0.19791053235530853, 0.19975310564041138, 0.18809883296489716, 0.22770489752292633, 0.20001105964183807, 0.2053360939025879, 0.21735885739326477, 0.20892910659313202, 0.21025575697422028, 0.20600862801074982, 0.21839070320129395, 0.22567807137966156, 0.2128998339176178, 0.21884213387966156, 0.2121904492378235, 0.21645599603652954, 0.19867520034313202, 0.2104768604040146, 0.19670364260673523, 0.2021760791540146, 0.2146318554878235, 0.24284161627292633, 0.21327756345272064, 0.21734964847564697, 0.21000701189041138, 0.18860554695129395, 0.22147700190544128, 0.2050965577363968, 0.21415278315544128, 0.21243919432163239, 0.21980948746204376, 0.21425412595272064, 0.2175154834985733, 0.2124115526676178]","[10.9375, 9.5, 9.0625, 9.375, 9.375, 9.4375, 9.3125, 9.4375, 9.1875, 9.375, 9.375, 9.375, 9.3125, 9.375, 9.375, 9.375, 9.375, 9.375, 9.375, 9.375, 9.4375, 9.3125, 9.5, 9.5, 9.375, 9.4375, 9.4375, 9.4375, 9.4375, 9.375, 9.5, 9.5, 9.4375, 9.4375, 9.5, 9.4375, 9.4375, 9.5, 9.5, 9.4375, 9.5, 9.25, 9.4375, 9.4375, 9.4375, 9.375, 9.4375, 9.4375, 9.4375, 9.375, 9.4375, 9.5, 9.5, 9.4375, 9.375, 9.375, 9.4375, 9.4375, 9.5, 9.5, 9.375, 9.375, 9.5625, 9.4375, 9.5, 9.4375, 9.5, 9.4375, 9.375, 9.4375, 9.5, 9.5, 9.5625, 9.5, 9.625, 9.5, 9.5625, 9.4375, 9.4375, 9.5, 9.5, 9.625, 9.625, 9.625, 9.6875, 9.6875, 9.625, 9.625, 10.0, 9.4375, 9.4375, 9.5, 9.5, 9.5625, 9.5, 9.625, 9.5625, 9.625, 9.6875, 9.6875, 9.625, 9.6875, 9.8125, 9.8125, 9.6875, 9.625, 9.6875, 9.6875, 9.75, 9.6875, 9.6875, 9.8125, 9.6875, 9.6875, 9.75, 9.75, 9.8125, 9.9375, 9.8125, 9.6875, 9.75, 9.8125, 9.875, 9.8125, 9.75, 9.8125, 9.875, 9.8125, 9.875, 9.875, 9.9375, 9.875, 9.8125, 9.875, 9.8125, 9.8125, 9.875, 9.875, 9.8125, 9.875, 9.9375, 9.875, 9.9375, 9.9375, 9.875, 10.0, 10.0, 9.8125, 9.875, 9.875, 9.875, 9.9375, 10.0625, 9.875, 9.9375, 10.125, 9.9375, 10.0625, 10.0, 9.9375, 10.0, 10.0, 10.125, 10.0625, 10.0625, 10.25, 10.0625, 10.125, 9.8125, 10.0625, 10.125, 10.125, 10.125, 10.1875, 10.375, 10.1875, 10.1875, 10.1875, 10.0625, 10.125, 10.1875, 10.0625, 10.1875, 10.25, 10.1875, 10.3125, 10.375, 10.3125]","[56320.0, 13376.0, 8640.0, 11840.0, 11840.0, 12544.0, 11072.0, 12544.0, 9792.0, 11840.0, 11840.0, 11840.0, 11072.0, 11840.0, 11840.0, 11840.0, 11840.0, 11840.0, 11840.0, 11840.0, 12544.0, 11072.0, 13376.0, 13376.0, 11840.0, 12544.0, 12544.0, 12544.0, 12544.0, 11840.0, 13376.0, 13376.0, 12544.0, 12544.0, 13376.0, 12544.0, 12544.0, 13376.0, 13376.0, 12544.0, 13376.0, 10432.0, 12544.0, 12544.0, 12544.0, 11840.0, 12544.0, 12544.0, 12544.0, 11840.0, 12544.0, 13376.0, 13376.0, 12544.0, 11840.0, 11840.0, 12544.0, 12544.0, 13376.0, 13376.0, 11840.0, 11840.0, 14272.0, 12544.0, 13376.0, 12544.0, 13376.0, 12544.0, 11840.0, 12544.0, 13376.0, 13376.0, 14272.0, 13376.0, 15168.0, 13376.0, 14272.0, 12544.0, 12544.0, 13376.0, 13376.0, 15168.0, 15168.0, 15168.0, 16128.0, 16128.0, 15168.0, 15168.0, 22016.0, 12544.0, 12544.0, 13376.0, 13376.0, 14272.0, 13376.0, 15168.0, 14272.0, 15168.0, 16128.0, 16128.0, 15168.0, 16128.0, 18304.0, 18304.0, 16128.0, 15168.0, 16128.0, 16128.0, 17152.0, 16128.0, 16128.0, 18304.0, 16128.0, 16128.0, 17152.0, 17152.0, 18304.0, 20736.0, 18304.0, 16128.0, 17152.0, 18304.0, 19456.0, 18304.0, 17152.0, 18304.0, 19456.0, 18304.0, 19456.0, 19456.0, 20736.0, 19456.0, 18304.0, 19456.0, 18304.0, 18304.0, 19456.0, 19456.0, 18304.0, 19456.0, 20736.0, 19456.0, 20736.0, 20736.0, 19456.0, 22016.0, 22016.0, 18304.0, 19456.0, 19456.0, 19456.0, 20736.0, 23424.0, 19456.0, 20736.0, 24960.0, 20736.0, 23424.0, 22016.0, 20736.0, 22016.0, 22016.0, 24960.0, 23424.0, 23424.0, 28288.0, 23424.0, 24960.0, 18304.0, 23424.0, 24960.0, 24960.0, 24960.0, 26624.0, 32128.0, 26624.0, 26624.0, 26624.0, 23424.0, 24960.0, 26624.0, 23424.0, 26624.0, 28288.0, 26624.0, 30208.0, 32128.0, 30208.0]","[10.9375, 9.4375, 9.0625, 9.25, 9.25, 9.3125, 9.1875, 9.25, 9.125, 9.3125, 9.375, 9.3125, 9.25, 9.3125, 9.25, 9.3125, 9.25, 9.3125, 9.375, 9.3125, 9.4375, 9.25, 9.375, 9.375, 9.25, 9.3125, 9.25, 9.25, 9.25, 9.25, 9.3125, 9.3125, 9.25, 9.25, 9.3125, 9.25, 9.25, 9.3125, 9.3125, 9.25, 9.25, 9.0625, 9.1875, 9.125, 9.125, 9.125, 9.125, 9.1875, 9.1875, 9.125, 9.125, 9.1875, 9.1875, 9.125, 9.0625, 9.0625, 9.125, 9.0625, 9.125, 9.0625, 9.0, 9.0, 9.125, 9.0, 9.0625, 9.0625, 9.125, 9.0625, 9.0625, 9.0, 9.125, 9.125, 9.125, 9.0625, 9.125, 9.0625, 9.0625, 8.9375, 9.0, 9.0625, 9.0625, 9.125, 9.125, 9.1875, 9.1875, 9.1875, 9.0625, 9.0625, 9.375, 9.0625, 9.0, 9.0, 9.0, 9.0, 8.9375, 9.0625, 9.0, 9.0625, 9.125, 9.125, 9.125, 9.125, 9.25, 9.1875, 9.0625, 9.0, 9.125, 9.125, 9.125, 9.1875, 9.0625, 9.125, 9.125, 9.1875, 9.125, 9.125, 9.1875, 9.1875, 9.125, 9.0625, 9.0, 9.0625, 9.125, 9.0625, 9.0625, 9.125, 9.1875, 9.125, 9.1875, 9.1875, 9.3125, 9.4375, 9.1875, 9.125, 9.1875, 9.0625, 9.125, 9.1875, 9.125, 9.25, 9.25, 9.1875, 9.125, 9.375, 9.25, 9.6875, 9.625, 9.3125, 9.3125, 9.1875, 9.25, 9.375, 9.375, 9.3125, 9.25, 9.375, 9.4375, 9.5625, 9.4375, 9.4375, 9.5, 9.4375, 9.625, 9.5, 9.5, 9.625, 9.5, 9.4375, 9.375, 9.625, 9.6875, 9.5625, 9.5, 9.5625, 9.6875, 9.625, 9.625, 9.625, 9.5, 9.5625, 9.625, 9.4375, 9.625, 9.6875, 9.6875, 9.75, 9.75, 9.6875]","[56320.0, 12544.0, 8640.0, 10432.0, 10432.0, 11072.0, 9792.0, 10432.0, 9216.0, 11072.0, 11840.0, 11072.0, 10432.0, 11072.0, 10432.0, 11072.0, 10432.0, 11072.0, 11840.0, 11072.0, 12544.0, 10432.0, 11840.0, 11840.0, 10432.0, 11072.0, 10432.0, 10432.0, 10432.0, 10432.0, 11072.0, 11072.0, 10432.0, 10432.0, 11072.0, 10432.0, 10432.0, 11072.0, 11072.0, 10432.0, 10432.0, 8640.0, 9792.0, 9216.0, 9216.0, 9216.0, 9216.0, 9792.0, 9792.0, 9216.0, 9216.0, 9792.0, 9792.0, 9216.0, 8640.0, 8640.0, 9216.0, 8640.0, 9216.0, 8640.0, 8128.0, 8128.0, 9216.0, 8128.0, 8640.0, 8640.0, 9216.0, 8640.0, 8640.0, 8128.0, 9216.0, 9216.0, 9216.0, 8640.0, 9216.0, 8640.0, 8640.0, 7616.0, 8128.0, 8640.0, 8640.0, 9216.0, 9216.0, 9792.0, 9792.0, 9792.0, 8640.0, 8640.0, 11840.0, 8640.0, 8128.0, 8128.0, 8128.0, 8128.0, 7616.0, 8640.0, 8128.0, 8640.0, 9216.0, 9216.0, 9216.0, 9216.0, 10432.0, 9792.0, 8640.0, 8128.0, 9216.0, 9216.0, 9216.0, 9792.0, 8640.0, 9216.0, 9216.0, 9792.0, 9216.0, 9216.0, 9792.0, 9792.0, 9216.0, 8640.0, 8128.0, 8640.0, 9216.0, 8640.0, 8640.0, 9216.0, 9792.0, 9216.0, 9792.0, 9792.0, 11072.0, 12544.0, 9792.0, 9216.0, 9792.0, 8640.0, 9216.0, 9792.0, 9216.0, 10432.0, 10432.0, 9792.0, 9216.0, 11840.0, 10432.0, 16128.0, 15168.0, 11072.0, 11072.0, 9792.0, 10432.0, 11840.0, 11840.0, 11072.0, 10432.0, 11840.0, 12544.0, 14272.0, 12544.0, 12544.0, 13376.0, 12544.0, 15168.0, 13376.0, 13376.0, 15168.0, 13376.0, 12544.0, 11840.0, 15168.0, 16128.0, 14272.0, 13376.0, 14272.0, 16128.0, 15168.0, 15168.0, 15168.0, 13376.0, 14272.0, 15168.0, 12544.0, 15168.0, 16128.0, 16128.0, 17152.0, 17152.0, 16128.0]","[10.9375, 9.1875, 8.8125, 9.0, 9.125, 9.1875, 9.125, 9.125, 9.0625, 9.125, 9.1875, 9.0625, 9.0625, 9.125, 9.125, 9.125, 9.1875, 9.0625, 9.125, 9.0625, 9.1875, 9.0625, 9.25, 9.25, 9.125, 9.1875, 9.125, 9.125, 9.125, 9.0625, 9.1875, 9.1875, 9.3125, 9.25, 9.25, 9.25, 9.1875, 9.25, 9.1875, 9.125, 9.0625, 8.9375, 9.0625, 9.0, 9.0, 8.9375, 9.0, 9.0625, 9.0625, 8.9375, 9.0625, 9.125, 9.0625, 9.125, 9.0, 9.0625, 9.0, 9.0625, 9.125, 9.0625, 9.0625, 9.0, 9.125, 9.0, 9.0625, 9.125, 9.25, 9.125, 9.0, 9.0, 9.0625, 9.0625, 9.125, 9.1875, 9.25, 9.0625, 8.9375, 8.875, 8.9375, 9.0, 9.0625, 9.1875, 9.125, 9.3125, 9.3125, 9.25, 9.1875, 9.0625, 10.375, 8.9375, 8.75, 8.6875, 8.75, 8.8125, 8.75, 8.875, 8.9375, 8.9375, 9.0625, 9.0625, 9.125, 9.0625, 9.125, 9.1875, 9.125, 9.0625, 9.1875, 9.1875, 9.125, 9.1875, 9.0625, 9.1875, 9.0625, 9.375, 9.375, 9.25, 9.3125, 9.5, 9.3125, 9.1875, 9.125, 9.375, 9.25, 9.125, 9.25, 9.375, 9.375, 9.25, 9.25, 9.3125, 9.5625, 9.5625, 9.25, 9.125, 9.1875, 8.9375, 9.0625, 9.0625, 9.0625, 9.25, 9.25, 9.1875, 9.0625, 9.3125, 9.25, 9.6875, 9.625, 9.25, 9.1875, 9.125, 9.0625, 9.1875, 9.25, 9.125, 9.125, 9.25, 9.4375, 9.5625, 9.4375, 9.3125, 9.375, 9.4375, 9.4375, 9.5625, 9.5, 9.4375, 9.4375, 9.3125, 9.25, 9.5625, 9.5625, 9.4375, 9.375, 9.5, 9.625, 9.5, 9.5, 9.5, 9.375, 9.5, 9.5625, 9.5, 9.625, 9.6875, 9.8125, 9.875, 9.875, 9.875]","[56320.0, 9792.0, 6720.0, 8128.0, 9216.0, 9792.0, 9216.0, 9216.0, 8640.0, 9216.0, 9792.0, 8640.0, 8640.0, 9216.0, 9216.0, 9216.0, 9792.0, 8640.0, 9216.0, 8640.0, 9792.0, 8640.0, 10432.0, 10432.0, 9216.0, 9792.0, 9216.0, 9216.0, 9216.0, 8640.0, 9792.0, 9792.0, 11072.0, 10432.0, 10432.0, 10432.0, 9792.0, 10432.0, 9792.0, 9216.0, 8640.0, 7616.0, 8640.0, 8128.0, 8128.0, 7616.0, 8128.0, 8640.0, 8640.0, 7616.0, 8640.0, 9216.0, 8640.0, 9216.0, 8128.0, 8640.0, 8128.0, 8640.0, 9216.0, 8640.0, 8640.0, 8128.0, 9216.0, 8128.0, 8640.0, 9216.0, 10432.0, 9216.0, 8128.0, 8128.0, 8640.0, 8640.0, 9216.0, 9792.0, 10432.0, 8640.0, 7616.0, 7168.0, 7616.0, 8128.0, 8640.0, 9792.0, 9216.0, 11072.0, 11072.0, 10432.0, 9792.0, 8640.0, 32128.0, 7616.0, 6336.0, 5952.0, 6336.0, 6720.0, 6336.0, 7168.0, 7616.0, 7616.0, 8640.0, 8640.0, 9216.0, 8640.0, 9216.0, 9792.0, 9216.0, 8640.0, 9792.0, 9792.0, 9216.0, 9792.0, 8640.0, 9792.0, 8640.0, 11840.0, 11840.0, 10432.0, 11072.0, 13376.0, 11072.0, 9792.0, 9216.0, 11840.0, 10432.0, 9216.0, 10432.0, 11840.0, 11840.0, 10432.0, 10432.0, 11072.0, 14272.0, 14272.0, 10432.0, 9216.0, 9792.0, 7616.0, 8640.0, 8640.0, 8640.0, 10432.0, 10432.0, 9792.0, 8640.0, 11072.0, 10432.0, 16128.0, 15168.0, 10432.0, 9792.0, 9216.0, 8640.0, 9792.0, 10432.0, 9216.0, 9216.0, 10432.0, 12544.0, 14272.0, 12544.0, 11072.0, 11840.0, 12544.0, 12544.0, 14272.0, 13376.0, 12544.0, 12544.0, 11072.0, 10432.0, 14272.0, 14272.0, 12544.0, 11840.0, 13376.0, 15168.0, 13376.0, 13376.0, 13376.0, 11840.0, 13376.0, 14272.0, 13376.0, 15168.0, 16128.0, 18304.0, 19456.0, 19456.0, 19456.0]","[0.0, 0.0007589556626044214, 0.001583531266078353, 0.0015197568573057652, 0.0011288748355582356, 0.0015667781699448824, 0.001220349338836968, 0.0014500274555757642, 0.0012333272024989128, 0.002479414688423276, 0.001196806551888585, 0.001518741250038147, 0.0014332764549180865, 0.0014837244525551796, 0.001262568635866046, 0.0015794429928064346, 0.0010354488622397184, 0.0015777895459905267, 0.0015045821201056242, 0.001381005859002471, 0.0010772919049486518, 0.0007304379250854254, 0.0011739236069843173, 0.0014172508381307125, 0.0015547832008451223, 0.001487620873376727, 0.0018578586168587208, 0.0016880332259461284, 0.001442672684788704, 0.0014698306331411004, 0.0013664313592016697, 0.0013223291607573628, 0.0011277222074568272, 0.0009259259095415473, 0.0011576719116419554, 0.0012871571816504002, 0.001045153709128499, 0.0013502647634595633, 0.0012750067980960011, 0.0009607612737454474, 0.0010503082303330302, 0.0010018519824370742, 0.0008232209365814924, 0.001490471651777625, 0.0012914204271510243, 0.0016301532741636038, 0.0020321786869317293, 0.001957511529326439, 0.0012914793333038688, 0.001378516317345202, 0.0017496082000434399, 0.0018612315179780126, 0.0016745064640417695, 0.002293369034305215, 0.001758961589075625, 0.0017064065905287862, 0.0024290636647492647, 0.0022076063323765993, 0.0016307495534420013, 0.001761097926646471, 0.0015198723413050175, 0.002087110187858343, 0.002394497161731124, 0.002636953955516219, 0.0021929156500846148, 0.002078017219901085, 0.0015505761839449406, 0.001667576259933412, 0.002840520814061165, 0.0019395530689507723, 0.0021077212877571583, 0.002420164877548814, 0.00253791781142354, 0.00218016654253006, 0.002424815436825156, 0.0021336583886295557, 0.002542475936934352, 0.0030289655551314354, 0.0029606460593640804, 0.0029698447324335575, 0.0033100966829806566, 0.0026973483618348837, 0.0034553620498627424, 0.0027966501656919718, 0.003272500354796648, 0.002558955457061529, 0.002899700775742531, 0.002756918780505657, 0.0021356840152293444, 0.002681005746126175, 0.0039002392441034317, 0.004031399264931679, 0.003616306697949767, 0.0037897813599556684, 0.004630332812666893, 0.003738346276804805, 0.004074708092957735, 0.003517266595736146, 0.003559964010491967, 0.0038325292989611626, 0.003765588393434882, 0.0035210198257118464, 0.003412033664062619, 0.003878739895299077, 0.00462645897641778, 0.005336992908269167, 0.004613627679646015, 0.004087920766323805, 0.004535078536719084, 0.004709814675152302, 0.004841509275138378, 0.004406089428812265, 0.004425114952027798, 0.005142796318978071, 0.004387034103274345, 0.004879383370280266, 0.004178759641945362, 0.004693619441241026, 0.005329699255526066, 0.004367210902273655, 0.004716550465673208, 0.0051051415503025055, 0.0052411858923733234, 0.005164269357919693, 0.0053438590839505196, 0.0057617174461483955, 0.006047957111150026, 0.005903800018131733, 0.005488056223839521, 0.005862148012965918, 0.0049686431884765625, 0.005063831806182861, 0.005721696652472019, 0.0066957478411495686, 0.006524615455418825, 0.006305744871497154, 0.006241532042622566, 0.0063950917683541775, 0.00592912407591939, 0.0063194031827151775, 0.006983472965657711, 0.007491434924304485, 0.006402749568223953, 0.006678735837340355, 0.0072510032914578915, 0.006800434086471796, 0.006373196374624968, 0.006845156662166119, 0.007016794756054878, 0.007176049053668976, 0.006255979184061289, 0.00701493863016367, 0.007130395155400038, 0.006959640420973301, 0.00791572779417038, 0.007458142936229706, 0.0069539546966552734, 0.007647220510989428, 0.007859115488827229, 0.0072951652109622955, 0.0078578544780612, 0.007884282618761063, 0.005988663993775845, 0.006654815748333931, 0.007191182114183903, 0.007888616994023323, 0.009003528393805027, 0.009992207400500774, 0.008204692043364048, 0.00778221944347024, 0.007937594316899776, 0.008002061396837234, 0.006290744990110397, 0.006704557687044144, 0.005715588573366404, 0.006642346736043692, 0.005659747403115034, 0.007070522755384445, 0.004139526281505823, 0.004712001886218786, 0.005877605639398098, 0.005994036328047514, 0.0057182940654456615, 0.005864432547241449, 0.005401446484029293, 0.006290748715400696, 0.005551258102059364, 0.005206040572375059]","[0.0, 0.0006635771133005619, 0.0014331397833302617, 0.0013046314707025886, 0.0015286433044821024, 0.0015518476720899343, 0.0013062237994745374, 0.0020004280377179384, 0.0013049662811681628, 0.0020971314515918493, 0.0013379286974668503, 0.0014663541223853827, 0.001980918925255537, 0.001422596862539649, 0.001818882068619132, 0.0017867459682747722, 0.0015945890918374062, 0.0015522963367402554, 0.001958371140062809, 0.0016891530249267817, 0.001475430792197585, 0.001625772682018578, 0.0014450866729021072, 0.0016593157779425383, 0.0015204239170998335, 0.0016053940635174513, 0.0019140086369588971, 0.0016804743790999055, 0.001562583609484136, 0.001520293764770031, 0.0013799448497593403, 0.001422475092113018, 0.00152004964184016, 0.0011661245953291655, 0.0013263592263683677, 0.0015189927071332932, 0.0017544986912980676, 0.0016464601503685117, 0.0015843110159039497, 0.0017127320170402527, 0.0015939578879624605, 0.0015941796591505408, 0.0013590736780315638, 0.0016381856985390186, 0.0017544046277180314, 0.0017759709153324366, 0.0019993155729025602, 0.0015529780648648739, 0.0015832602512091398, 0.0014862812822684646, 0.00163715158123523, 0.0018956229323521256, 0.001883561722934246, 0.0023856647312641144, 0.0017861153464764357, 0.0017234181286767125, 0.0019155653426423669, 0.0020752879790961742, 0.0018742434913292527, 0.002045624889433384, 0.0016799169825389981, 0.0022059925831854343, 0.0021718197967857122, 0.0023218735586851835, 0.001788104185834527, 0.002269224263727665, 0.00198926217854023, 0.001874163281172514, 0.0024286648258566856, 0.0019694941584020853, 0.002222079783678055, 0.002352312207221985, 0.0028234387282282114, 0.002568053314462304, 0.0026126436423510313, 0.002622424392029643, 0.00299705658107996, 0.0027268060948699713, 0.0025682183913886547, 0.002920254599303007, 0.002997730392962694, 0.0022460613399744034, 0.0028135564643889666, 0.0023948766756802797, 0.0023756271693855524, 0.0025048975367099047, 0.0023535452783107758, 0.002973643597215414, 0.0016586233396083117, 0.002278001746162772, 0.002792011247947812, 0.002854882273823023, 0.002675084164366126, 0.0026104352436959743, 0.0028456503059715033, 0.003360337344929576, 0.0024284047540277243, 0.002972339978441596, 0.0027620168402791023, 0.003595736576244235, 0.0030583003535866737, 0.0029953892808407545, 0.0029182566795498133, 0.0032309486996382475, 0.003508621593937278, 0.0036488929763436317, 0.0033166788052767515, 0.0031875406857579947, 0.003499571932479739, 0.0031672657933086157, 0.0036276085302233696, 0.0031025998760014772, 0.0033916074316948652, 0.0035743715707212687, 0.0036811521276831627, 0.0033172820694744587, 0.0029968959279358387, 0.0034020517487078905, 0.0038069982547312975, 0.00362788001075387, 0.0035404099617153406, 0.0033383267000317574, 0.004106468521058559, 0.0038317046128213406, 0.0039039936382323503, 0.004109017550945282, 0.0040015834383666515, 0.004078312311321497, 0.0033707504626363516, 0.00407617399469018, 0.0036927226465195417, 0.003690313082188368, 0.0041943080723285675, 0.005055308807641268, 0.004738119896501303, 0.00463686790317297, 0.004708400461822748, 0.00501384399831295, 0.005285288207232952, 0.004996896721422672, 0.005585815291851759, 0.005958748981356621, 0.004998340737074614, 0.005102914292365313, 0.005924627184867859, 0.005697456654161215, 0.005679812282323837, 0.006231263279914856, 0.0064162202179431915, 0.005926084704697132, 0.005296043120324612, 0.005487863440066576, 0.005576785188168287, 0.006551480386406183, 0.006514344364404678, 0.007055221125483513, 0.006119545083492994, 0.0071155717596411705, 0.006878329440951347, 0.007062600459903479, 0.008252344094216824, 0.007603302597999573, 0.005691665690392256, 0.0067728785797953606, 0.007896510884165764, 0.008867353200912476, 0.008833657950162888, 0.009552539326250553, 0.007648695260286331, 0.00802525319159031, 0.007228941656649113, 0.007493042387068272, 0.00616471329703927, 0.006867513991892338, 0.007029369007796049, 0.008195932023227215, 0.006465286482125521, 0.006396542768925428, 0.004717081785202026, 0.005417210981249809, 0.006193573120981455, 0.005553890950977802, 0.006101085338741541, 0.006152825430035591, 0.005957155488431454, 0.006022807210683823, 0.005702303256839514, 0.005424780771136284]","[0.0, 0.0, 1.2283804608159699e-05, 0.0, 1.2283804608159699e-05, 0.000147405662573874, 1.2283804608159699e-05, 0.0001719732681522146, 0.00022110847930889577, 0.00031937891617417336, 4.9135218432638794e-05, 6.141902122180909e-05, 0.0005773387965746224, 0.00024567608488723636, 0.00012283804244361818, 9.827043686527759e-05, 0.0001719732681522146, 0.00018425706366542727, 0.0009335691574960947, 0.000147405662573874, 0.00022110847930889577, 0.0002702437050174922, 0.00015968945808708668, 8.59866340761073e-05, 8.59866340761073e-05, 0.000147405662573874, 0.0004913521697744727, 0.00022110847930889577, 0.00038079795194789767, 0.000294811325147748, 0.000147405662573874, 0.00033166271168738604, 0.0003439465363044292, 0.00031937891617417336, 0.00039308174746111035, 0.00047906837426126003, 0.0006510416278615594, 0.0003439465363044292, 0.00046678457874804735, 0.00031937891617417336, 0.0006141902413219213, 0.0005650550010614097, 0.0005650550010614097, 0.0006878930726088583, 0.0007124606636352837, 0.0008844339172355831, 0.0011669613886624575, 0.0011178262066096067, 0.0008967177127487957, 0.000626474036835134, 0.0009458529530093074, 0.0008967177127487957, 0.0009704205440357327, 0.0014617727138102055, 0.0009335691574960947, 0.0011178262066096067, 0.001252948073670268, 0.001363502349704504, 0.0008352987351827323, 0.001179245300590992, 0.001105542411096394, 0.0015723269898444414, 0.001510908012278378, 0.00143720512278378, 0.001510908012278378, 0.0017934354254975915, 0.0012775156646966934, 0.0015723269898444414, 0.002100530546158552, 0.0014617727138102055, 0.0016337459674105048, 0.0017197326524183154, 0.001989976270124316, 0.001658313674852252, 0.0018917059060186148, 0.0020022601820528507, 0.0019531248835846782, 0.002211084822192788, 0.002026827773079276, 0.0020882468670606613, 0.002444477053359151, 0.001989976270124316, 0.0028866941574960947, 0.001965408679097891, 0.0024199094623327255, 0.0017811516299843788, 0.0021619496401399374, 0.0025673152413219213, 0.0019162734970450401, 0.001842570723965764, 0.0018917059060186148, 0.002260220004245639, 0.0021865172311663628, 0.0018302869284525514, 0.002321639098227024, 0.0028252750635147095, 0.0029972484335303307, 0.0031323700677603483, 0.002505896147340536, 0.003292059525847435, 0.0028621265664696693, 0.002800707472488284, 0.002665585605427623, 0.0031937891617417336, 0.004029087722301483, 0.003697425127029419, 0.0036728575360029936, 0.0036482899449765682, 0.004201061092317104, 0.004016804043203592, 0.003807979403063655, 0.0034148977138102055, 0.0035991547629237175, 0.004385318141430616, 0.004262480419129133, 0.004115074407309294, 0.003623722353950143, 0.003979952540248632, 0.004065939225256443, 0.0036605738569051027, 0.003881682176142931, 0.003918533679097891, 0.004090507049113512, 0.004065939225256443, 0.004729264881461859, 0.004594143014401197, 0.005478576757013798, 0.005024075973778963, 0.0047906837426126, 0.005208333022892475, 0.0045572915114462376, 0.004569575190544128, 0.005036360118538141, 0.00578567199409008, 0.005539996083825827, 0.0045327236875891685, 0.005208333022892475, 0.005085495300590992, 0.005269752349704504, 0.005171481519937515, 0.00578567199409008, 0.005773388314992189, 0.004974940791726112, 0.004925805609673262, 0.005515428259968758, 0.005576847121119499, 0.005331171210855246, 0.0055522797629237175, 0.005245184525847435, 0.005392590072005987, 0.004385318141430616, 0.005318887531757355, 0.005159197840839624, 0.005110062658786774, 0.00566283380612731, 0.005294319707900286, 0.00474154856055975, 0.00490123825147748, 0.005539996083825827, 0.0051223463378846645, 0.005417157895863056, 0.005576847121119499, 0.004594143014401197, 0.004815251566469669, 0.005036360118538141, 0.004311615601181984, 0.0053680227138102055, 0.0055522797629237175, 0.005171481519937515, 0.004594143014401197, 0.004692413378506899, 0.004913521930575371, 0.004299331456422806, 0.0049380892887711525, 0.005245184525847435, 0.005171481519937515, 0.004545007832348347, 0.005097778979688883, 0.0028621265664696693, 0.003697425127029419, 0.004606426693499088, 0.004508156329393387, 0.004201061092317104, 0.004643278196454048, 0.004471304826438427, 0.005331171210855246, 0.0043730344623327255, 0.004483588505536318]","[0.0, 0.014250890351831913, 0.023024167865514755, 0.02414373867213726, 0.020864346995949745, 0.02221755124628544, 0.022401079535484314, 0.025425303727388382, 0.022044416517019272, 0.027542471885681152, 0.0224520992487669, 0.02550351247191429, 0.026838919147849083, 0.02280321903526783, 0.02303469367325306, 0.025293923914432526, 0.02218231000006199, 0.025100283324718475, 0.026412446051836014, 0.02379835955798626, 0.02150663733482361, 0.018958674743771553, 0.0193471796810627, 0.024298761039972305, 0.025756869465112686, 0.023952936753630638, 0.025351587682962418, 0.02484399452805519, 0.02433597296476364, 0.022373678162693977, 0.02183743752539158, 0.019765619188547134, 0.018241118639707565, 0.016149446368217468, 0.019885769113898277, 0.018138188868761063, 0.015144032426178455, 0.01883605867624283, 0.01631428487598896, 0.017686346545815468, 0.01311582513153553, 0.01530492678284645, 0.013155444525182247, 0.01572687178850174, 0.01727326028048992, 0.01643126830458641, 0.019073253497481346, 0.015781821683049202, 0.014908256009221077, 0.0138016976416111, 0.014457549899816513, 0.01458275131881237, 0.017991740256547928, 0.016790781170129776, 0.015776129439473152, 0.014029690995812416, 0.01574692502617836, 0.013858429156243801, 0.013463778421282768, 0.009490111842751503, 0.007041100412607193, 0.00999930128455162, 0.01256486028432846, 0.01397363655269146, 0.010844722390174866, 0.010023899376392365, 0.008559000678360462, 0.00784405879676342, 0.010887125506997108, 0.008243353106081486, 0.008686261251568794, 0.01071278564631939, 0.010602626018226147, 0.010448534041643143, 0.006143535021692514, 0.005707097705453634, 0.008282781578600407, 0.006115065887570381, 0.00463917525485158, 0.0061328234151005745, 0.007327796425670385, 0.006453266367316246, 0.006767952349036932, 0.005192860960960388, 0.004621309228241444, 0.005129034630954266, 0.0043235705234110355, 0.0052924854680895805, 0.0013169343583285809, 0.0060906782746315, 0.015941454097628593, 0.014762906357645988, 0.011841519735753536, 0.011857799254357815, 0.01272437535226345, 0.006998860742896795, 0.003056881483644247, 0.003919007256627083, 0.004648121073842049, 0.005342376884073019, 0.005331781227141619, 0.005064003169536591, 0.004592716693878174, 0.003668138524517417, 0.0033150461968034506, 0.00276976078748703, 0.0027292449958622456, 0.0030941024888306856, 0.0026847829576581717, 0.0023874170146882534, 0.002846344141289592, 0.0018958011642098427, 0.0056564523838460445, 0.002358655910938978, 0.002074785530567169, 0.002081530634313822, 0.0020124020520597696, 0.0016541248187422752, 0.001976517029106617, 0.0035024634562432766, 0.0030127516947686672, 0.0017786930548027158, 0.002913073869422078, 0.004191350191831589, 0.002507381606847048, 0.0017771541606634855, 0.00268052751198411, 0.0029074500780552626, 0.0036090996582061052, 0.002927577355876565, 0.002774511929601431, 0.002791931387037039, 0.0031159892678260803, 0.006258724723011255, 0.0034585094545036554, 0.009782125242054462, 0.0037801889702677727, 0.008622894063591957, 0.0062197488732635975, 0.005899566691368818, 0.006254261825233698, 0.0035456856712698936, 0.008927111513912678, 0.008922523818910122, 0.008442469872534275, 0.011691836640238762, 0.011092090047895908, 0.006681044586002827, 0.009235350415110588, 0.004707637242972851, 0.010143603198230267, 0.008626768365502357, 0.005676886532455683, 0.009734181687235832, 0.006417436525225639, 0.008729344233870506, 0.011651800014078617, 0.009690913371741772, 0.005556201562285423, 0.009497743099927902, 0.007304838392883539, 0.007795257028192282, 0.011836516670882702, 0.014627753756940365, 0.0176295917481184, 0.02081725373864174, 0.011100205592811108, 0.015547768212854862, 0.015703987330198288, 0.018712136894464493, 0.019003763794898987, 0.021263597533106804, 0.015457428060472012, 0.016217350959777832, 0.017259523272514343, 0.02294522151350975, 0.018386490643024445, 0.023680396378040314, 0.023064712062478065, 0.01998656801879406, 0.02409554086625576, 0.02352144382894039, 0.02246014215052128, 0.02245069108903408, 0.01771845668554306, 0.01574876345694065, 0.01494849007576704, 0.013455543667078018]","[0.0, 0.01138243731111288, 0.019278069958090782, 0.022486859932541847, 0.020937521010637283, 0.021513205021619797, 0.02244965359568596, 0.02403080090880394, 0.02098970301449299, 0.028044817969202995, 0.023154273629188538, 0.024082038551568985, 0.026331419125199318, 0.025310568511486053, 0.02871352806687355, 0.023676879703998566, 0.025292987003922462, 0.027619928121566772, 0.025630835443735123, 0.026789283379912376, 0.025912603363394737, 0.022392025217413902, 0.023075906559824944, 0.024319322779774666, 0.02495214156806469, 0.023893045261502266, 0.026692405343055725, 0.024407990276813507, 0.025812430307269096, 0.023314181715250015, 0.022440578788518906, 0.022332999855279922, 0.02254396304488182, 0.021961253136396408, 0.023513780906796455, 0.02337162382900715, 0.022163238376379013, 0.023117922246456146, 0.02161554805934429, 0.025320639833807945, 0.0189831405878067, 0.02248159609735012, 0.022387070581316948, 0.023501452058553696, 0.022369731217622757, 0.02408120036125183, 0.024846790358424187, 0.024382207542657852, 0.02077525481581688, 0.02203434891998768, 0.02034594863653183, 0.02247709594666958, 0.023371292278170586, 0.023691020905971527, 0.021734794601798058, 0.020892562344670296, 0.02112722583115101, 0.02024829015135765, 0.02511039562523365, 0.01812310703098774, 0.021409159526228905, 0.022226618602871895, 0.02215735800564289, 0.021279416978359222, 0.021123506128787994, 0.018981480970978737, 0.02406594716012478, 0.018195003271102905, 0.022882536053657532, 0.021562272682785988, 0.021221047267317772, 0.023769892752170563, 0.02174057625234127, 0.023197244852781296, 0.02045934647321701, 0.021959124132990837, 0.025332363322377205, 0.019496938213706017, 0.017755400389432907, 0.018991965800523758, 0.019352708011865616, 0.01641523279249668, 0.019511546939611435, 0.017587102949619293, 0.01490559708327055, 0.016328420490026474, 0.01632598787546158, 0.02012486755847931, 0.0062943086959421635, 0.017817964777350426, 0.02097855694591999, 0.020772302523255348, 0.021671416237950325, 0.01937238872051239, 0.021037960425019264, 0.01801205240190029, 0.015729740262031555, 0.016916416585445404, 0.017972776666283607, 0.02033112570643425, 0.021759381517767906, 0.01752173714339733, 0.019273091107606888, 0.016917668282985687, 0.01228419691324234, 0.014180637896060944, 0.013464216142892838, 0.015941547229886055, 0.01509533915668726, 0.01650318130850792, 0.015569101087749004, 0.014528327621519566, 0.018503781408071518, 0.012515727430582047, 0.01106326561421156, 0.011859017424285412, 0.011380176991224289, 0.008891248144209385, 0.010510910302400589, 0.015032117255032063, 0.016741961240768433, 0.011734288185834885, 0.013370583765208721, 0.01846092753112316, 0.012425248511135578, 0.010536081157624722, 0.012532326392829418, 0.014944124966859818, 0.014245014637708664, 0.01373225450515747, 0.011907124891877174, 0.011158342473208904, 0.013060196302831173, 0.013886108063161373, 0.012494185008108616, 0.01516950223594904, 0.014774083159863949, 0.019662734121084213, 0.01591828465461731, 0.015245922841131687, 0.017557809129357338, 0.014534112066030502, 0.02024746872484684, 0.018914254382252693, 0.019087523221969604, 0.0196453295648098, 0.02098970301449299, 0.015517695806920528, 0.017962876707315445, 0.01135533582419157, 0.018371136859059334, 0.015997344627976418, 0.014879968948662281, 0.022339722141623497, 0.017332980409264565, 0.019883735105395317, 0.01977045089006424, 0.02260223962366581, 0.018390651792287827, 0.021664239466190338, 0.021831171587109566, 0.022152742370963097, 0.02394852228462696, 0.025989525020122528, 0.02512429468333721, 0.02736632153391838, 0.024471340700984, 0.02569550648331642, 0.02436271868646145, 0.026178011670708656, 0.024017032235860825, 0.02724147029221058, 0.025613874197006226, 0.025516245514154434, 0.026593273505568504, 0.03268580511212349, 0.02618701383471489, 0.02663389965891838, 0.029161684215068817, 0.02331879921257496, 0.028154052793979645, 0.027358239516615868, 0.025532476603984833, 0.02769862860441208, 0.02539387159049511, 0.02296561747789383, 0.019239701330661774, 0.022142667323350906]","[0.0, 0.0056014154106378555, 0.011387087404727936, 0.007038620300590992, 0.007038620300590992, 0.006043632049113512, 0.00803360901772976, 0.010244693607091904, 0.0119030075147748, 0.014335201121866703, 0.012455778196454048, 0.013119104318320751, 0.012308373115956783, 0.005564563907682896, 0.014924823306500912, 0.00972877349704504, 0.004532724153250456, 0.013340212404727936, 0.012676887214183807, 0.010908018797636032, 0.010944870300590992, 0.004201061557978392, 0.010502653196454048, 0.013340212404727936, 0.01370872650295496, 0.011534493416547775, 0.012713738717138767, 0.01186615601181984, 0.012971698306500912, 0.013229657895863056, 0.009581368416547775, 0.01193985901772976, 0.0022110850550234318, 0.003095518797636032, 0.009176002815365791, 0.002690153429284692, 0.001363502349704504, 0.008733785711228848, 0.00589622650295496, 0.005454009398818016, 0.002100530778989196, 0.003021816024556756, 0.00121609668713063, 0.006448997650295496, 0.008144162595272064, 0.006227889098227024, 0.010428950190544128, 0.004532724153250456, 0.004680129699409008, 0.0056014154106378555, 0.006264740601181984, 0.00589622650295496, 0.00803360901772976, 0.00685436325147748, 0.003869398729875684, 0.004790684208273888, 0.005859375, 0.00593307800590992, 0.00394310150295496, 0.002063679276034236, 0.001547759398818016, 0.00493808975443244, 0.006264740601181984, 0.00685436325147748, 0.003537735901772976, 0.001658313674852252, 0.000810731144156307, 0.000884433975443244, 0.006264740601181984, 0.0014003538526594639, 0.00147405662573874, 0.001547759398818016, 0.002137382049113512, 0.002100530778989196, 0.000773879699409008, 0.000958136806730181, 0.001363502349704504, 0.001363502349704504, 0.0004790684033650905, 0.000663325481582433, 0.001031839638017118, 0.002100530778989196, 0.001842570723965764, 0.00073702831286937, 0.0005527712637558579, 0.000294811325147748, 0.000515919819008559, 0.001179245300590992, 0.000221108493860811, 0.001842570723965764, 0.007480837404727936, 0.007701945956796408, 0.007517688907682896, 0.00596992950886488, 0.008660082705318928, 0.001437205239199102, 0.0001842570782173425, 0.000442216987721622, 0.000663325481582433, 0.00173201656434685, 0.001179245300590992, 0.0007001769263297319, 0.000810731144156307, 0.000589622650295496, 0.000442216987721622, 0.000958136806730181, 0.000626474036835134, 0.000884433975443244, 0.00073702831286937, 0.001437205239199102, 0.001584610901772976, 0.000810731144156307, 0.002100530778989196, 0.0003316627407912165, 0.000773879699409008, 0.00073702831286937, 0.0008475825889036059, 0.000442216987721622, 0.000663325481582433, 0.001031839638017118, 0.00073702831286937, 0.000147405662573874, 0.000368514156434685, 0.00073702831286937, 0.0008475825889036059, 0.000626474036835134, 0.001768867950886488, 0.001252948073670268, 0.001510908012278378, 0.000958136806730181, 0.000589622650295496, 0.002063679276034236, 0.000773879699409008, 0.001842570723965764, 0.001289799576625228, 0.001510908012278378, 0.001289799576625228, 0.001326650963164866, 0.002653301926329732, 0.0016951651778072119, 0.0022110850550234318, 0.002358490601181984, 0.001179245300590992, 0.003095518797636032, 0.003095518797636032, 0.003574587404727936, 0.004606427159160376, 0.003758844453841448, 0.002616450423374772, 0.001031839638017118, 0.003169221803545952, 0.003721992950886488, 0.00342718162573874, 0.00173201656434685, 0.001879422226920724, 0.002063679276034236, 0.003058667527511716, 0.003832547226920724, 0.001916273613460362, 0.002137382049113512, 0.00298496475443244, 0.002616450423374772, 0.0022110850550234318, 0.002358490601181984, 0.003500884398818016, 0.00681751174852252, 0.002690153429284692, 0.004495872650295496, 0.006743809208273888, 0.00685436325147748, 0.00589622650295496, 0.004274764098227024, 0.001547759398818016, 0.001289799576625228, 0.001621462288312614, 0.005085495300590992, 0.0034640331286937, 0.0069649177603423595, 0.007443985901772976, 0.007296580355614424, 0.008070459589362144, 0.0044221701100468636, 0.010797465220093727, 0.009212854318320751, 0.00792305450886488, 0.004569575656205416, 0.003316627349704504, 0.003353478852659464]","[10.5, 10.5, 10.5, 10.5, 10.5, 6.03125, 6.03125, 6.03125, 6.03125, 6.03125, 5.65625, 5.65625, 5.65625, 5.65625, 5.65625, 5.3125, 5.3125, 5.3125, 5.3125, 5.3125, 5.125, 5.125, 5.125, 5.125, 5.125, 5.0, 5.0, 5.0, 5.0, 5.0, 4.90625, 4.90625, 4.90625, 4.90625, 4.90625, 4.8125, 4.8125, 4.8125, 4.8125, 4.8125, 4.75, 4.75, 4.75, 4.75, 4.75, 4.71875, 4.71875, 4.71875, 4.71875, 4.71875, 4.65625, 4.65625, 4.65625, 4.65625, 4.65625, 4.625, 4.625, 4.625, 4.625, 4.625, 4.5625, 4.5625, 4.5625, 4.5625, 4.5625, 4.53125, 4.53125, 4.53125, 4.53125, 4.53125, 4.46875, 4.46875, 4.46875, 4.46875, 4.46875, 4.40625, 4.40625, 4.40625, 4.40625, 4.40625, 4.34375, 4.34375, 4.34375, 4.34375, 4.34375, 4.3125, 4.3125, 4.3125, 4.3125, 4.3125, 4.25, 4.25, 4.25, 4.25, 4.25, 4.21875, 4.21875, 4.21875, 4.21875, 4.21875, 4.15625, 4.15625, 4.15625, 4.15625, 4.15625, 4.125, 4.125, 4.125, 4.125, 4.125, 4.09375, 4.09375, 4.09375, 4.09375, 4.09375, 4.0625, 4.0625, 4.0625, 4.0625, 4.0625, 4.03125, 4.03125, 4.03125, 4.03125, 4.03125, 3.984375, 3.984375, 3.984375, 3.984375, 3.984375, 3.953125, 3.953125, 3.953125, 3.953125, 3.953125, 3.890625, 3.890625, 3.890625, 3.890625, 3.890625, 3.859375, 3.859375, 3.859375, 3.859375, 3.859375, 3.828125, 3.828125, 3.828125, 3.828125, 3.828125, 3.828125, 3.828125, 3.828125, 3.828125, 3.828125, 3.78125, 3.78125, 3.78125, 3.78125, 3.78125, 3.765625, 3.765625, 3.765625, 3.765625, 3.765625, 3.8125, 3.8125, 3.8125, 3.8125, 3.8125, 3.734375, 3.734375, 3.734375, 3.734375, 3.734375, 3.75, 3.75, 3.75, 3.75, 3.75, 3.71875, 3.71875, 3.71875, 3.71875, 3.71875, 3.71875, 3.71875, 3.71875]","[36315.2578125, 36315.2578125, 36315.2578125, 36315.2578125, 36315.2578125, 416.2333679199219, 416.2333679199219, 416.2333679199219, 416.2333679199219, 416.2333679199219, 286.07281494140625, 286.07281494140625, 286.07281494140625, 286.07281494140625, 286.07281494140625, 202.8560333251953, 202.8560333251953, 202.8560333251953, 202.8560333251953, 202.8560333251953, 168.173583984375, 168.173583984375, 168.173583984375, 168.173583984375, 168.173583984375, 148.4126739501953, 148.4126739501953, 148.4126739501953, 148.4126739501953, 148.4126739501953, 135.13128662109375, 135.13128662109375, 135.13128662109375, 135.13128662109375, 135.13128662109375, 123.0384521484375, 123.0384521484375, 123.0384521484375, 123.0384521484375, 123.0384521484375, 115.58393096923828, 115.58393096923828, 115.58393096923828, 115.58393096923828, 115.58393096923828, 112.02778625488281, 112.02778625488281, 112.02778625488281, 112.02778625488281, 112.02778625488281, 105.24037170410156, 105.24037170410156, 105.24037170410156, 105.24037170410156, 105.24037170410156, 102.0024642944336, 102.0024642944336, 102.0024642944336, 102.0024642944336, 102.0024642944336, 95.82245635986328, 95.82245635986328, 95.82245635986328, 95.82245635986328, 95.82245635986328, 92.87431335449219, 92.87431335449219, 92.87431335449219, 92.87431335449219, 92.87431335449219, 87.24734497070312, 87.24734497070312, 87.24734497070312, 87.24734497070312, 87.24734497070312, 81.96129608154297, 81.96129608154297, 81.96129608154297, 81.96129608154297, 81.96129608154297, 76.99551391601562, 76.99551391601562, 76.99551391601562, 76.99551391601562, 76.99551391601562, 74.62661743164062, 74.62661743164062, 74.62661743164062, 74.62661743164062, 74.62661743164062, 70.10521697998047, 70.10521697998047, 70.10521697998047, 70.10521697998047, 70.10521697998047, 67.94831085205078, 67.94831085205078, 67.94831085205078, 67.94831085205078, 67.94831085205078, 63.8315315246582, 63.8315315246582, 63.8315315246582, 63.8315315246582, 63.8315315246582, 61.867645263671875, 61.867645263671875, 61.867645263671875, 61.867645263671875, 61.867645263671875, 59.96417999267578, 59.96417999267578, 59.96417999267578, 59.96417999267578, 59.96417999267578, 58.1192741394043, 58.1192741394043, 58.1192741394043, 58.1192741394043, 58.1192741394043, 56.33113479614258, 56.33113479614258, 56.33113479614258, 56.33113479614258, 56.33113479614258, 53.751548767089844, 53.751548767089844, 53.751548767089844, 53.751548767089844, 53.751548767089844, 52.09778594970703, 52.09778594970703, 52.09778594970703, 52.09778594970703, 52.09778594970703, 48.941341400146484, 48.941341400146484, 48.941341400146484, 48.941341400146484, 48.941341400146484, 47.435577392578125, 47.435577392578125, 47.435577392578125, 47.435577392578125, 47.435577392578125, 45.976139068603516, 45.976139068603516, 45.976139068603516, 45.976139068603516, 45.976139068603516, 45.976139068603516, 45.976139068603516, 45.976139068603516, 45.976139068603516, 45.976139068603516, 43.8707389831543, 43.8707389831543, 43.8707389831543, 43.8707389831543, 43.8707389831543, 43.19058609008789, 43.19058609008789, 43.19058609008789, 43.19058609008789, 43.19058609008789, 45.263343811035156, 45.263343811035156, 45.263343811035156, 45.263343811035156, 45.263343811035156, 41.861751556396484, 41.861751556396484, 41.861751556396484, 41.861751556396484, 41.861751556396484, 42.52098083496094, 42.52098083496094, 42.52098083496094, 42.52098083496094, 42.52098083496094, 41.212745666503906, 41.212745666503906, 41.212745666503906, 41.212745666503906, 41.212745666503906, 41.212745666503906, 41.212745666503906, 41.212745666503906]","[0.03989120572805405, 0.03989120572805405, 0.03989120572805405, 0.03989120572805405, 0.03989120572805405, 0.1769004613161087, 0.1769004613161087, 0.1769004613161087, 0.1769004613161087, 0.1769004613161087, 0.19280749559402466, 0.19280749559402466, 0.19280749559402466, 0.19280749559402466, 0.19280749559402466, 0.20956620573997498, 0.20956620573997498, 0.20956620573997498, 0.20956620573997498, 0.20956620573997498, 0.22074782848358154, 0.22074782848358154, 0.22074782848358154, 0.22074782848358154, 0.22074782848358154, 0.22533586621284485, 0.22533586621284485, 0.22533586621284485, 0.22533586621284485, 0.22533586621284485, 0.2349240481853485, 0.2349240481853485, 0.2349240481853485, 0.2349240481853485, 0.2349240481853485, 0.23915493488311768, 0.23915493488311768, 0.23915493488311768, 0.23915493488311768, 0.23915493488311768, 0.24629798531532288, 0.24629798531532288, 0.24629798531532288, 0.24629798531532288, 0.24629798531532288, 0.24783648550510406, 0.24783648550510406, 0.24783648550510406, 0.24783648550510406, 0.24783648550510406, 0.25033655762672424, 0.25033655762672424, 0.25033655762672424, 0.25033655762672424, 0.25033655762672424, 0.25486963987350464, 0.25486963987350464, 0.25486963987350464, 0.25486963987350464, 0.25486963987350464, 0.25964999198913574, 0.25964999198913574, 0.25964999198913574, 0.25964999198913574, 0.25964999198913574, 0.2650347650051117, 0.2650347650051117, 0.2650347650051117, 0.2650347650051117, 0.2650347650051117, 0.2717931866645813, 0.2717931866645813, 0.2717931866645813, 0.2717931866645813, 0.2717931866645813, 0.27813950181007385, 0.27813950181007385, 0.27813950181007385, 0.27813950181007385, 0.27813950181007385, 0.2814088463783264, 0.2814088463783264, 0.2814088463783264, 0.2814088463783264, 0.2814088463783264, 0.28720569610595703, 0.28720569610595703, 0.28720569610595703, 0.28720569610595703, 0.28720569610595703, 0.2905574440956116, 0.2905574440956116, 0.2905574440956116, 0.2905574440956116, 0.2905574440956116, 0.29426634311676025, 0.29426634311676025, 0.29426634311676025, 0.29426634311676025, 0.29426634311676025, 0.2983873188495636, 0.2983873188495636, 0.2983873188495636, 0.2983873188495636, 0.2983873188495636, 0.3027830421924591, 0.3027830421924591, 0.3027830421924591, 0.3027830421924591, 0.3027830421924591, 0.3055303692817688, 0.3055303692817688, 0.3055303692817688, 0.3055303692817688, 0.3055303692817688, 0.3084700107574463, 0.3084700107574463, 0.3084700107574463, 0.3084700107574463, 0.3084700107574463, 0.3094041049480438, 0.3094041049480438, 0.3094041049480438, 0.3094041049480438, 0.3094041049480438, 0.3153932988643646, 0.3153932988643646, 0.3153932988643646, 0.3153932988643646, 0.3153932988643646, 0.31951427459716797, 0.31951427459716797, 0.31951427459716797, 0.31951427459716797, 0.31951427459716797, 0.3251737654209137, 0.3251737654209137, 0.3251737654209137, 0.3251737654209137, 0.3251737654209137, 0.3286079466342926, 0.3286079466342926, 0.3286079466342926, 0.3286079466342926, 0.3286079466342926, 0.33061349391937256, 0.33061349391937256, 0.33061349391937256, 0.33061349391937256, 0.33061349391937256, 0.3293771743774414, 0.3293771743774414, 0.3293771743774414, 0.3293771743774414, 0.3293771743774414, 0.3323168158531189, 0.3323168158531189, 0.3323168158531189, 0.3323168158531189, 0.3323168158531189, 0.3355037271976471, 0.3355037271976471, 0.3355037271976471, 0.3355037271976471, 0.3355037271976471, 0.32877278327941895, 0.32877278327941895, 0.32877278327941895, 0.32877278327941895, 0.32877278327941895, 0.33814117312431335, 0.33814117312431335, 0.33814117312431335, 0.33814117312431335, 0.33814117312431335, 0.3365751802921295, 0.3365751802921295, 0.3365751802921295, 0.3365751802921295, 0.3365751802921295, 0.34017419815063477, 0.34017419815063477, 0.34017419815063477, 0.34017419815063477, 0.34017419815063477, 0.3419874310493469, 0.3419874310493469, 0.3419874310493469]","[10.875, 10.875, 10.875, 10.875, 10.875, 10.0, 10.0, 10.0, 10.0, 10.0, 9.6875, 9.6875, 9.6875, 9.6875, 9.6875, 10.25, 10.25, 10.25, 10.25, 10.25, 10.0, 10.0, 10.0, 10.0, 10.0, 9.75, 9.75, 9.75, 9.75, 9.75, 10.25, 10.25, 10.25, 10.25, 10.25, 10.1875, 10.1875, 10.1875, 10.1875, 10.1875, 9.5625, 9.5625, 9.5625, 9.5625, 9.5625, 9.5625, 9.5625, 9.5625, 9.5625, 9.5625, 9.5, 9.5, 9.5, 9.5, 9.5, 9.875, 9.875, 9.875, 9.875, 9.875, 9.6875, 9.6875, 9.6875, 9.6875, 9.6875, 9.4375, 9.4375, 9.4375, 9.4375, 9.4375, 9.3125, 9.3125, 9.3125, 9.3125, 9.3125, 9.4375, 9.4375, 9.4375, 9.4375, 9.4375, 9.5, 9.5, 9.5, 9.5, 9.5, 9.5625, 9.5625, 9.5625, 9.5625, 9.5625, 9.375, 9.375, 9.375, 9.375, 9.375, 9.3125, 9.3125, 9.3125, 9.3125, 9.3125, 9.625, 9.625, 9.625, 9.625, 9.625, 9.625, 9.625, 9.625, 9.625, 9.625, 9.5625, 9.5625, 9.5625, 9.5625, 9.5625, 9.5625, 9.5625, 9.5625, 9.5625, 9.5625, 9.625, 9.625, 9.625, 9.625, 9.625, 9.8125, 9.8125, 9.8125, 9.8125, 9.8125, 10.0, 10.0, 10.0, 10.0, 10.0, 9.5, 9.5, 9.5, 9.5, 9.5, 9.75, 9.75, 9.75, 9.75, 9.75, 10.5, 10.5, 10.5, 10.5, 10.5, 9.6875, 9.6875, 9.6875, 9.6875, 9.6875, 10.375, 10.375, 10.375, 10.375, 10.375, 10.5625, 10.5625, 10.5625, 10.5625, 10.5625, 11.1875, 11.1875, 11.1875, 11.1875, 11.1875, 11.6875, 11.6875, 11.6875, 11.6875, 11.6875, 10.9375, 10.9375, 10.9375, 10.9375, 10.9375, 11.0, 11.0, 11.0, 11.0, 11.0, 11.5, 11.5, 11.5]","[52838.375, 52838.375, 52838.375, 52838.375, 52838.375, 22026.32421875, 22026.32421875, 22026.32421875, 22026.32421875, 22026.32421875, 16114.8056640625, 16114.8056640625, 16114.8056640625, 16114.8056640625, 16114.8056640625, 28282.35546875, 28282.35546875, 28282.35546875, 28282.35546875, 28282.35546875, 22026.32421875, 22026.32421875, 22026.32421875, 22026.32421875, 22026.32421875, 17154.12109375, 17154.12109375, 17154.12109375, 17154.12109375, 17154.12109375, 28282.35546875, 28282.35546875, 28282.35546875, 28282.35546875, 28282.35546875, 26568.814453125, 26568.814453125, 26568.814453125, 26568.814453125, 26568.814453125, 14221.267578125, 14221.267578125, 14221.267578125, 14221.267578125, 14221.267578125, 14221.267578125, 14221.267578125, 14221.267578125, 14221.267578125, 14221.267578125, 13359.6455078125, 13359.6455078125, 13359.6455078125, 13359.6455078125, 13359.6455078125, 19438.1640625, 19438.1640625, 19438.1640625, 19438.1640625, 19438.1640625, 16114.8056640625, 16114.8056640625, 16114.8056640625, 16114.8056640625, 16114.8056640625, 12550.2255859375, 12550.2255859375, 12550.2255859375, 12550.2255859375, 12550.2255859375, 11075.5361328125, 11075.5361328125, 11075.5361328125, 11075.5361328125, 11075.5361328125, 12550.2255859375, 12550.2255859375, 12550.2255859375, 12550.2255859375, 12550.2255859375, 13359.6455078125, 13359.6455078125, 13359.6455078125, 13359.6455078125, 13359.6455078125, 14221.267578125, 14221.267578125, 14221.267578125, 14221.267578125, 14221.267578125, 11789.845703125, 11789.845703125, 11789.845703125, 11789.845703125, 11789.845703125, 11075.5361328125, 11075.5361328125, 11075.5361328125, 11075.5361328125, 11075.5361328125, 15138.4599609375, 15138.4599609375, 15138.4599609375, 15138.4599609375, 15138.4599609375, 15138.4599609375, 15138.4599609375, 15138.4599609375, 15138.4599609375, 15138.4599609375, 14221.267578125, 14221.267578125, 14221.267578125, 14221.267578125, 14221.267578125, 14221.267578125, 14221.267578125, 14221.267578125, 14221.267578125, 14221.267578125, 15138.4599609375, 15138.4599609375, 15138.4599609375, 15138.4599609375, 15138.4599609375, 18260.466796875, 18260.466796875, 18260.466796875, 18260.466796875, 18260.466796875, 22026.32421875, 22026.32421875, 22026.32421875, 22026.32421875, 22026.32421875, 13359.6455078125, 13359.6455078125, 13359.6455078125, 13359.6455078125, 13359.6455078125, 17154.12109375, 17154.12109375, 17154.12109375, 17154.12109375, 17154.12109375, 36315.2578125, 36315.2578125, 36315.2578125, 36315.2578125, 36315.2578125, 16114.8056640625, 16114.8056640625, 16114.8056640625, 16114.8056640625, 16114.8056640625, 32048.103515625, 32048.103515625, 32048.103515625, 32048.103515625, 32048.103515625, 38657.38671875, 38657.38671875, 38657.38671875, 38657.38671875, 38657.38671875, 72221.4765625, 72221.4765625, 72221.4765625, 72221.4765625, 72221.4765625, 119073.0546875, 119073.0546875, 119073.0546875, 119073.0546875, 119073.0546875, 56246.15234375, 56246.15234375, 56246.15234375, 56246.15234375, 56246.15234375, 59873.71875, 59873.71875, 59873.71875, 59873.71875, 59873.71875, 98715.0390625, 98715.0390625, 98715.0390625]","[10.8125, 10.8125, 10.8125, 10.8125, 10.8125, 9.875, 9.875, 9.875, 9.875, 9.875, 9.6875, 9.6875, 9.6875, 9.6875, 9.6875, 10.0625, 10.0625, 10.0625, 10.0625, 10.0625, 10.0625, 10.0625, 10.0625, 10.0625, 10.0625, 10.0625, 10.0625, 10.0625, 10.0625, 10.0625, 9.875, 9.875, 9.875, 9.875, 9.875, 10.0, 10.0, 10.0, 10.0, 10.0, 10.0625, 10.0625, 10.0625, 10.0625, 10.0625, 10.25, 10.25, 10.25, 10.25, 10.25, 10.25, 10.25, 10.25, 10.25, 10.25, 10.375, 10.375, 10.375, 10.375, 10.375, 10.0625, 10.0625, 10.0625, 10.0625, 10.0625, 10.125, 10.125, 10.125, 10.125, 10.125, 9.9375, 9.9375, 9.9375, 9.9375, 9.9375, 9.875, 9.875, 9.875, 9.875, 9.875, 9.875, 9.875, 9.875, 9.875, 9.875, 9.875, 9.875, 9.875, 9.875, 9.875, 9.5625, 9.5625, 9.5625, 9.5625, 9.5625, 9.8125, 9.8125, 9.8125, 9.8125, 9.8125, 9.6875, 9.6875, 9.6875, 9.6875, 9.6875, 9.875, 9.875, 9.875, 9.875, 9.875, 10.0625, 10.0625, 10.0625, 10.0625, 10.0625, 9.875, 9.875, 9.875, 9.875, 9.875, 9.875, 9.875, 9.875, 9.875, 9.875, 10.25, 10.25, 10.25, 10.25, 10.25, 10.0, 10.0, 10.0, 10.0, 10.0, 9.6875, 9.6875, 9.6875, 9.6875, 9.6875, 9.8125, 9.8125, 9.8125, 9.8125, 9.8125, 9.8125, 9.8125, 9.8125, 9.8125, 9.8125, 9.3125, 9.3125, 9.3125, 9.3125, 9.3125, 9.5, 9.5, 9.5, 9.5, 9.5, 9.6875, 9.6875, 9.6875, 9.6875, 9.6875, 9.75, 9.75, 9.75, 9.75, 9.75, 10.0625, 10.0625, 10.0625, 10.0625, 10.0625, 10.0, 10.0, 10.0, 10.0, 10.0, 10.3125, 10.3125, 10.3125, 10.3125, 10.3125, 10.4375, 10.4375, 10.4375]","[49637.05859375, 49637.05859375, 49637.05859375, 49637.05859375, 49637.05859375, 19438.1640625, 19438.1640625, 19438.1640625, 19438.1640625, 19438.1640625, 16114.8056640625, 16114.8056640625, 16114.8056640625, 16114.8056640625, 16114.8056640625, 23446.8984375, 23446.8984375, 23446.8984375, 23446.8984375, 23446.8984375, 23446.8984375, 23446.8984375, 23446.8984375, 23446.8984375, 23446.8984375, 23446.8984375, 23446.8984375, 23446.8984375, 23446.8984375, 23446.8984375, 19438.1640625, 19438.1640625, 19438.1640625, 19438.1640625, 19438.1640625, 22026.32421875, 22026.32421875, 22026.32421875, 22026.32421875, 22026.32421875, 23446.8984375, 23446.8984375, 23446.8984375, 23446.8984375, 23446.8984375, 28282.35546875, 28282.35546875, 28282.35546875, 28282.35546875, 28282.35546875, 28282.35546875, 28282.35546875, 28282.35546875, 28282.35546875, 28282.35546875, 32048.103515625, 32048.103515625, 32048.103515625, 32048.103515625, 32048.103515625, 23446.8984375, 23446.8984375, 23446.8984375, 23446.8984375, 23446.8984375, 24959.091796875, 24959.091796875, 24959.091796875, 24959.091796875, 24959.091796875, 20691.81640625, 20691.81640625, 20691.81640625, 20691.81640625, 20691.81640625, 19438.1640625, 19438.1640625, 19438.1640625, 19438.1640625, 19438.1640625, 19438.1640625, 19438.1640625, 19438.1640625, 19438.1640625, 19438.1640625, 19438.1640625, 19438.1640625, 19438.1640625, 19438.1640625, 19438.1640625, 14221.267578125, 14221.267578125, 14221.267578125, 14221.267578125, 14221.267578125, 18260.466796875, 18260.466796875, 18260.466796875, 18260.466796875, 18260.466796875, 16114.8056640625, 16114.8056640625, 16114.8056640625, 16114.8056640625, 16114.8056640625, 19438.1640625, 19438.1640625, 19438.1640625, 19438.1640625, 19438.1640625, 23446.8984375, 23446.8984375, 23446.8984375, 23446.8984375, 23446.8984375, 19438.1640625, 19438.1640625, 19438.1640625, 19438.1640625, 19438.1640625, 19438.1640625, 19438.1640625, 19438.1640625, 19438.1640625, 19438.1640625, 28282.35546875, 28282.35546875, 28282.35546875, 28282.35546875, 28282.35546875, 22026.32421875, 22026.32421875, 22026.32421875, 22026.32421875, 22026.32421875, 16114.8056640625, 16114.8056640625, 16114.8056640625, 16114.8056640625, 16114.8056640625, 18260.466796875, 18260.466796875, 18260.466796875, 18260.466796875, 18260.466796875, 18260.466796875, 18260.466796875, 18260.466796875, 18260.466796875, 18260.466796875, 11075.5361328125, 11075.5361328125, 11075.5361328125, 11075.5361328125, 11075.5361328125, 13359.6455078125, 13359.6455078125, 13359.6455078125, 13359.6455078125, 13359.6455078125, 16114.8056640625, 16114.8056640625, 16114.8056640625, 16114.8056640625, 16114.8056640625, 17154.12109375, 17154.12109375, 17154.12109375, 17154.12109375, 17154.12109375, 23446.8984375, 23446.8984375, 23446.8984375, 23446.8984375, 23446.8984375, 22026.32421875, 22026.32421875, 22026.32421875, 22026.32421875, 22026.32421875, 30106.408203125, 30106.408203125, 30106.408203125, 30106.408203125, 30106.408203125, 34115.02734375, 34115.02734375, 34115.02734375]","[10.875, 10.875, 10.875, 10.875, 10.875, 9.8125, 9.8125, 9.8125, 9.8125, 9.8125, 9.5, 9.5, 9.5, 9.5, 9.5, 9.8125, 9.8125, 9.8125, 9.8125, 9.8125, 9.875, 9.875, 9.875, 9.875, 9.875, 9.8125, 9.8125, 9.8125, 9.8125, 9.8125, 9.5625, 9.5625, 9.5625, 9.5625, 9.5625, 9.8125, 9.8125, 9.8125, 9.8125, 9.8125, 9.75, 9.75, 9.75, 9.75, 9.75, 9.9375, 9.9375, 9.9375, 9.9375, 9.9375, 10.0, 10.0, 10.0, 10.0, 10.0, 10.0625, 10.0625, 10.0625, 10.0625, 10.0625, 9.8125, 9.8125, 9.8125, 9.8125, 9.8125, 9.9375, 9.9375, 9.9375, 9.9375, 9.9375, 9.6875, 9.6875, 9.6875, 9.6875, 9.6875, 9.6875, 9.6875, 9.6875, 9.6875, 9.6875, 9.75, 9.75, 9.75, 9.75, 9.75, 9.75, 9.75, 9.75, 9.75, 9.75, 9.3125, 9.3125, 9.3125, 9.3125, 9.3125, 9.5625, 9.5625, 9.5625, 9.5625, 9.5625, 9.625, 9.625, 9.625, 9.625, 9.625, 9.875, 9.875, 9.875, 9.875, 9.875, 10.0, 10.0, 10.0, 10.0, 10.0, 9.875, 9.875, 9.875, 9.875, 9.875, 9.8125, 9.8125, 9.8125, 9.8125, 9.8125, 10.3125, 10.3125, 10.3125, 10.3125, 10.3125, 10.125, 10.125, 10.125, 10.125, 10.125, 9.5625, 9.5625, 9.5625, 9.5625, 9.5625, 9.875, 9.875, 9.875, 9.875, 9.875, 9.875, 9.875, 9.875, 9.875, 9.875, 9.25, 9.25, 9.25, 9.25, 9.25, 9.5625, 9.5625, 9.5625, 9.5625, 9.5625, 9.8125, 9.8125, 9.8125, 9.8125, 9.8125, 9.8125, 9.8125, 9.8125, 9.8125, 9.8125, 10.1875, 10.1875, 10.1875, 10.1875, 10.1875, 10.1875, 10.1875, 10.1875, 10.1875, 10.1875, 10.375, 10.375, 10.375, 10.375, 10.375, 10.6875, 10.6875, 10.6875]","[52838.375, 52838.375, 52838.375, 52838.375, 52838.375, 18260.466796875, 18260.466796875, 18260.466796875, 18260.466796875, 18260.466796875, 13359.6455078125, 13359.6455078125, 13359.6455078125, 13359.6455078125, 13359.6455078125, 18260.466796875, 18260.466796875, 18260.466796875, 18260.466796875, 18260.466796875, 19438.1640625, 19438.1640625, 19438.1640625, 19438.1640625, 19438.1640625, 18260.466796875, 18260.466796875, 18260.466796875, 18260.466796875, 18260.466796875, 14221.267578125, 14221.267578125, 14221.267578125, 14221.267578125, 14221.267578125, 18260.466796875, 18260.466796875, 18260.466796875, 18260.466796875, 18260.466796875, 17154.12109375, 17154.12109375, 17154.12109375, 17154.12109375, 17154.12109375, 20691.81640625, 20691.81640625, 20691.81640625, 20691.81640625, 20691.81640625, 22026.32421875, 22026.32421875, 22026.32421875, 22026.32421875, 22026.32421875, 23446.8984375, 23446.8984375, 23446.8984375, 23446.8984375, 23446.8984375, 18260.466796875, 18260.466796875, 18260.466796875, 18260.466796875, 18260.466796875, 20691.81640625, 20691.81640625, 20691.81640625, 20691.81640625, 20691.81640625, 16114.8056640625, 16114.8056640625, 16114.8056640625, 16114.8056640625, 16114.8056640625, 16114.8056640625, 16114.8056640625, 16114.8056640625, 16114.8056640625, 16114.8056640625, 17154.12109375, 17154.12109375, 17154.12109375, 17154.12109375, 17154.12109375, 17154.12109375, 17154.12109375, 17154.12109375, 17154.12109375, 17154.12109375, 11075.5361328125, 11075.5361328125, 11075.5361328125, 11075.5361328125, 11075.5361328125, 14221.267578125, 14221.267578125, 14221.267578125, 14221.267578125, 14221.267578125, 15138.4599609375, 15138.4599609375, 15138.4599609375, 15138.4599609375, 15138.4599609375, 19438.1640625, 19438.1640625, 19438.1640625, 19438.1640625, 19438.1640625, 22026.32421875, 22026.32421875, 22026.32421875, 22026.32421875, 22026.32421875, 19438.1640625, 19438.1640625, 19438.1640625, 19438.1640625, 19438.1640625, 18260.466796875, 18260.466796875, 18260.466796875, 18260.466796875, 18260.466796875, 30106.408203125, 30106.408203125, 30106.408203125, 30106.408203125, 30106.408203125, 24959.091796875, 24959.091796875, 24959.091796875, 24959.091796875, 24959.091796875, 14221.267578125, 14221.267578125, 14221.267578125, 14221.267578125, 14221.267578125, 19438.1640625, 19438.1640625, 19438.1640625, 19438.1640625, 19438.1640625, 19438.1640625, 19438.1640625, 19438.1640625, 19438.1640625, 19438.1640625, 10404.50390625, 10404.50390625, 10404.50390625, 10404.50390625, 10404.50390625, 14221.267578125, 14221.267578125, 14221.267578125, 14221.267578125, 14221.267578125, 18260.466796875, 18260.466796875, 18260.466796875, 18260.466796875, 18260.466796875, 18260.466796875, 18260.466796875, 18260.466796875, 18260.466796875, 18260.466796875, 26568.814453125, 26568.814453125, 26568.814453125, 26568.814453125, 26568.814453125, 26568.814453125, 26568.814453125, 26568.814453125, 26568.814453125, 26568.814453125, 32048.103515625, 32048.103515625, 32048.103515625, 32048.103515625, 32048.103515625, 43804.55859375, 43804.55859375, 43804.55859375]","[1.473437412190241, 0.9614095497601698, 0.26373923300076535, 0.5224457112437675, 0.40690035593650575, 0.3418661983471469, 0.43567001812798245, 0.3034495934223483, 0.5653434557542061, 0.6571802421248183, 0.3965495307359509, 0.2876027014505178, 0.2791138236550776, 0.32103493968691443, 0.3087708975388111, 0.296426584800739, 0.2749006847402253, 0.2814325653940486, 0.3260577819273951, 0.262684251506324, 0.30768472142120473, 0.301925025365319, 0.2886363422490586, 0.28561447879025015, 0.2843244385097337, 0.2765855461719792, 0.27121203284360146, 0.3163947295369805, 0.27828070286555306, 0.28355162882808915, 0.27933848013743046, 0.2786516362191157, 0.30439871236568794, 0.3092959772027376, 0.25619207599703137, 0.26901889233595055, 0.2786220471983355, 0.2911283399570285, 0.25356279995557685, 0.3005344668100977, 0.27273532457755445, 0.279148844524222, 0.2767093196638081, 0.25995551706661735, 0.2624199168035971, 0.2724896957574786, 0.2617497092331335, 0.2597195586251151, 0.27302992563524714, 0.3232354013229091, 0.28290584468574426, 0.24345094791869132, 0.30864923721873294, 0.29887641128216086, 0.25177948419525026, 0.25384824940642337, 0.2904867773024152, 0.26380804759861004, 0.2539776115190631, 0.2613413202309045, 0.26492155681260265, 0.2462912237574183, 0.2648157143923279, 0.27530664425733425, 0.2633082607894632, 0.30562976876724274, 0.24930223677968152, 0.2660745996175884, 0.2524609377895155, 0.25566492942183855, 0.23160676763162177, 0.26980551318469914, 0.19348300281132433, 0.19546322661622187, 0.2062891787008927, 0.2614700927397707, 0.22374152842092773, 0.21255995778031095, 0.20651382157209425, 0.2117280086512463, 0.1819541432607711, 0.2488880072911759, 0.24655587744172516, 0.1926385635559274, 0.19589225212198863, 0.17774973661459215, 0.19949401509912035, 0.18856174087338268, 0.19038249869287785, 0.18305702562067813, 0.20862232609230455, 0.2533576382227698, 0.17070830736106446, 0.19304328125368533, 0.16986799337490477, 0.21895789334978305, 0.18304092477142025, 0.2502525856756293, 0.18558596431418442, 0.2514028470455562, 0.1817603165552211, 0.18544228289394746, 0.20661390304093458, 0.16958860038994358, 0.22723794751105222, 0.18770897400143605, 0.16780619002864286, 0.22261849846568318, 0.15553875015782004, 0.28391082142790597, 0.18068555210954101, 0.19432569270036193, 0.17554035312471783, 0.17124217793470445, 0.17967935616889028, 0.18699649544649008, 0.18789002618922263, 0.2132317404278064, 0.1568302687879994, 0.1896651962098634, 0.20393441353909394, 0.22667426428428356, 0.15073380236399755, 0.4163319720850008, 0.14730781020302222, 0.20570153724113419, 0.22590705394158847, 0.1573665508259006, 0.17641610434070915, 0.11059299318570306, 0.2203163424660481, 0.15497985111394735, 0.503339345760498, 0.10882661613668135, 0.26294108021054735, 0.14379555853525194, 0.17841718619508554, 0.27702475442095004, 0.09655319699877539, 0.21387167358701298, 0.2049826049023219, 0.09006238260623341, 0.5115593030952523, 0.0965486460833278, 0.3134104211051422, 0.16502388395535886, 0.09164580764042625, 0.4646747857039879, 0.0933669455303842, 0.0627111077097742, 0.2605975490822401, 0.0767321298095668, 0.08698101558963968, 0.2740354128395687, 0.07014172696553986, 0.11961754689002392, 0.3167412858297005, 0.09287860326654729, 0.09612484976640451, 0.4287042653937549, 0.08797429641927078, 0.060289552827085396, 0.5922849287400591, 0.10683909169419115, 0.05712429969506243, 0.7559989268552908, 0.10376814289495243, 0.06167968473002601, 0.7101740450334892, 0.11136460255642151, 0.05128870900555982, 0.6972791487787422, 0.16180195678361642, 0.05722680044002671, 0.09299791308410116, 0.25099969626932145, 0.06908007040360535, 0.07118333568339388, 0.2064157877275604, 0.07684087738278873, 0.049304271283649566, 0.2676251270743094, 0.07778449330557125, 0.5850667517317799, 0.11511755040878996, 0.14787240324006148, 0.1361270316588402, 0.1243859592120887]","[0.0, 55.088875, 57.9204560546875, 60.77008471679687, 63.59076684570312, 66.42516503906249, 93.17107714843749, 95.99807055664061, 98.86793725585936, 101.71597314453123, 104.55272924804686, 130.26337768554686, 133.10942919921874, 135.95798291015623, 138.812166015625, 141.65104931640624, 165.09221728515624, 167.94541845703122, 170.78104980468748, 173.64036303710935, 176.5527160644531, 204.0789797363281, 206.9340302734375, 209.82201855468747, 212.6685458984375, 215.51737353515622, 240.02166259765622, 242.87191406249997, 245.7054162597656, 248.5529162597656, 251.41666503906248, 275.8859619140625, 278.7356501464844, 281.59356298828123, 284.45620678710935, 287.310732421875, 312.13993359375, 315.00727172851566, 317.8731479492188, 320.75576000976565, 323.63137646484375, 349.07762841796875, 351.96699584960936, 354.8253078613281, 357.6772946777343, 360.5458908691406, 385.27934399414056, 388.17927294921867, 391.03563476562493, 393.87944335937493, 396.78607470703116, 423.12070751953115, 425.98589404296865, 428.8482482910155, 431.75622802734364, 434.625579345703, 461.965831298828, 464.83192749023425, 467.7064890136717, 470.57869628906235, 473.4466254882811, 499.1155336914061, 501.9734948730467, 504.81513598632796, 507.705440673828, 510.56515624999986, 539.6482050781249, 542.6847087402342, 545.7872312011717, 548.6465314941405, 551.9911708984374, 579.9424130859375, 583.3028601074218, 587.4400056152343, 592.011182861328, 596.6186423339843, 621.3295095214843, 626.4158459472656, 631.5524650878906, 636.1706618652344, 641.0532614746094, 670.9953884277344, 676.3035842285157, 681.8907731933595, 687.9957355957032, 695.3812424316407, 723.4173850097657, 729.9681281738282, 736.5369479980469, 742.8787009277344, 748.9821696777344, 776.1382204589844, 782.4715432128907, 790.371608154297, 797.4943806152345, 804.6334602050782, 837.2796223144533, 845.076557373047, 852.6904133300782, 860.5663771972656, 868.7392946777344, 901.9980720214844, 911.0592917480469, 920.8510749511719, 931.2121081542969, 941.1107106933594, 971.3280876464844, 981.6499323730469, 991.7870954589844, 1004.6480505371094, 1015.2807292480469, 1054.173498779297, 1066.193321044922, 1079.0567419433594, 1091.7298610839844, 1103.6966208496094, 1138.7333317871094, 1150.2496403808593, 1164.0914001464844, 1179.2748327636718, 1192.9920358886718, 1233.4187741699218, 1248.8997458496092, 1266.4890935058593, 1283.4080544433593, 1311.4329020996092, 1361.1856872558592, 1388.1362067871091, 1421.175741943359, 1460.7934958496091, 1507.201409912109, 1567.830448974609, 1608.246788818359, 1653.618937255859, 1742.956718505859, 1804.505757568359, 1905.562827880859, 1977.671796630859, 2055.461437255859, 2165.007046630859, 2241.273765380859, 2369.076187255859, 2498.887390380859, 2589.001749755859, 2765.4440935058587, 2884.8889450683587, 3091.1644606933587, 3277.4491013183588, 3461.0281794433586, 3914.9000544433584, 4212.0597731933585, 4485.600585693359, 4878.725554443359, 5100.810741943359, 5320.559038818359, 5690.6821325683595, 5918.172648193359, 6117.45972631836, 6474.85738256836, 6703.11730444336, 6926.63942944336, 7487.62205444336, 7837.65761694336, 8063.29810131836, 8680.26247631836, 9133.27110131836, 9413.04994506836, 10192.61232006836, 10777.429632568359, 11089.816351318359, 12098.69485131836, 13015.94028881836, 13427.412320068359, 14736.60144506836, 16282.124945068359, 17042.52550756836, 17960.52050756836, 19532.47488256836, 20401.16900756836, 21578.352882568357, 23560.877382568357, 24741.752757568356, 25878.978757568355, 28071.568007568356, 29411.556382568357, 32166.719882568355, 34931.716132568356, 37879.73563256836]","[67247, 743102, 1418517, 2100327, 2770393, 3443384, 4113626, 4787449, 5451513, 6145103, 6818425, 7511374, 8205347, 8870104, 9560339, 10207160, 10883744, 11562916, 12234470, 12903372, 13588282, 14273907, 14945709, 15633214, 16302974, 17009275, 17702794, 18366406, 19039873, 19712781, 20382617, 21054083, 21734847, 22400677, 23082698, 23766558, 24452374, 25139429, 25818801, 26507686, 27199055, 27872392, 28541146, 29212627, 29897126, 30598522, 31274752, 31957632, 32632868, 33300551, 33993733, 34664908, 35359018, 36033929, 36712999, 37390734, 38048636, 38711684, 39382532, 40068608, 40733083, 41417107, 42089010, 42771725, 43430963, 44113049, 44819444, 45552679, 46250344, 47066728, 47943078, 48756259, 49784767, 50956874, 52105895, 53169263, 54441882, 55714132, 56875480, 58119612, 59747326, 61090720, 62511292, 64098026, 65998332, 67664214, 69320134, 71041332, 72677859, 74222125, 75924496, 77581861, 79628578, 81441608, 83285840, 85176118, 87225306, 89167444, 91193112, 93291867, 95874764, 98229058, 100781823, 103485301, 106041127, 108470253, 111185071, 113839882, 117225648, 120025827, 123403841, 126586158, 129985000, 133285618, 136406274, 139482604, 142525840, 146184271, 150215358, 153791427, 157747018, 161891634, 166607042, 171124191, 178602833, 185103124, 192366661, 201197047, 211869644, 224239287, 233514249, 244381019, 256556320, 280648422, 297144393, 317967028, 337533544, 358407797, 387793081, 408286628, 436529297, 471471392, 495754236, 543152753, 575191201, 624378137, 674530015, 723707247, 846108961, 926221182, 993572646, 1099732838, 1159457435, 1218600658, 1317871770, 1372829493, 1426528733, 1522870193, 1584179214, 1644079189, 1789075575, 1883355197, 1944068474, 2109956915, 2231943479, 2300327236, 2510411813, 2667829036, 2752047902, 3023928866, 3263937298, 3374787439, 3727003747, 4142705183, 4347088610, 4587263091, 5010647599, 5244488289, 5561702717, 6095961677, 6400946077, 6708235645, 7300151153, 7661635647, 8405329710, 9145901735, 9941832848, 10000040116]","[6.7247e-06, 7.43102e-05, 0.0001418517, 0.0002100327, 0.0002770393, 0.0003443384, 0.0004113626, 0.0004787449, 0.0005451513, 0.0006145103, 0.0006818425, 0.0007511374, 0.0008205347, 0.0008870104, 0.0009560339, 0.001020716, 0.0010883744, 0.0011562916, 0.001223447, 0.0012903372, 0.0013588282, 0.0014273907, 0.0014945709, 0.0015633214, 0.0016302974, 0.0017009275, 0.0017702794, 0.0018366406, 0.0019039873, 0.0019712781, 0.0020382617, 0.0021054083, 0.0021734847, 0.0022400677, 0.0023082698, 0.0023766558, 0.0024452374, 0.0025139429, 0.0025818801, 0.0026507686, 0.0027199055, 0.0027872392, 0.0028541146, 0.0029212627, 0.0029897126, 0.0030598522, 0.0031274752, 0.0031957632, 0.0032632868, 0.0033300551, 0.0033993733, 0.0034664908, 0.0035359018, 0.0036033929, 0.0036712999, 0.0037390734, 0.0038048636, 0.0038711684, 0.0039382532, 0.0040068608, 0.0040733083, 0.0041417107, 0.004208901, 0.0042771725, 0.0043430963, 0.0044113049, 0.0044819444, 0.0045552679, 0.0046250344, 0.0047066728, 0.0047943078, 0.0048756259, 0.0049784767, 0.0050956874, 0.0052105895, 0.0053169263, 0.0054441882, 0.0055714132, 0.005687548, 0.0058119612, 0.0059747326, 0.006109072, 0.0062511292, 0.0064098026, 0.0065998332, 0.0067664214, 0.0069320134, 0.0071041332, 0.0072677859, 0.0074222125, 0.0075924496, 0.0077581861, 0.0079628578, 0.0081441608, 0.008328584, 0.0085176118, 0.0087225306, 0.0089167444, 0.0091193112, 0.0093291867, 0.0095874764, 0.0098229058, 0.0100781823, 0.0103485301, 0.0106041127, 0.0108470253, 0.0111185071, 0.0113839882, 0.0117225648, 0.0120025827, 0.0123403841, 0.0126586158, 0.0129985, 0.0133285618, 0.0136406274, 0.0139482604, 0.014252584, 0.0146184271, 0.0150215358, 0.0153791427, 0.0157747018, 0.0161891634, 0.0166607042, 0.0171124191, 0.0178602833, 0.0185103124, 0.0192366661, 0.0201197047, 0.0211869644, 0.0224239287, 0.0233514249, 0.0244381019, 0.025655632, 0.0280648422, 0.0297144393, 0.0317967028, 0.0337533544, 0.0358407797, 0.0387793081, 0.0408286628, 0.0436529297, 0.0471471392, 0.0495754236, 0.0543152753, 0.0575191201, 0.0624378137, 0.0674530015, 0.0723707247, 0.0846108961, 0.0926221182, 0.0993572646, 0.1099732838, 0.1159457435, 0.1218600658, 0.131787177, 0.1372829493, 0.1426528733, 0.1522870193, 0.1584179214, 0.1644079189, 0.1789075575, 0.1883355197, 0.1944068474, 0.2109956915, 0.2231943479, 0.2300327236, 0.2510411813, 0.2667829036, 0.2752047902, 0.3023928866, 0.3263937298, 0.3374787439, 0.3727003747, 0.4142705183, 0.434708861, 0.4587263091, 0.5010647599, 0.5244488289, 0.5561702717, 0.6095961677, 0.6400946077, 0.6708235645, 0.7300151153, 0.7661635647, 0.840532971, 0.9145901735, 0.9941832848, 1.0000040116]","[106, 106, 106, 106, 106, 106, 106, 106, 106, 106, 106, 106, 106, 106, 106, 106, 106, 106, 106, 106, 106, 106, 106, 106, 106, 106, 106, 106, 106, 106, 106, 106, 106, 106, 106, 106, 106, 106, 106, 106, 106, 106, 106, 106, 106, 106, 106, 106, 106, 106, 106, 106, 106, 106, 106, 106, 106, 106, 106, 106, 106, 106, 106, 106, 106, 106, 106, 106, 106, 106, 106, 106, 106, 106, 106, 106, 106, 106, 106, 106, 106, 106, 106, 106, 106, 106, 106, 106, 106, 106, 106, 106, 106, 106, 106, 106, 106, 106, 106, 106, 106, 106, 106, 106, 106, 106, 106, 106, 106, 106, 106, 106, 106, 106, 106, 106, 106, 106, 106, 106, 106, 106, 106, 106, 106, 106, 106, 106, 106, 106, 106, 106, 106, 106, 106, 106, 106, 106, 106, 106, 106, 106, 106, 106, 106, 106, 106, 106, 106, 106, 106, 106, 106, 106, 106, 106, 106, 106, 106, 106, 106, 106, 106, 106, 106, 106, 106, 106, 106, 106, 106, 106, 106, 106, 106, 106, 106, 106, 106, 106, 106, 106, 106, 106, 106, 106, 106, 106]","[1024, 1024, 1024, 1024, 1024, 1024, 1024, 1024, 1024, 1024, 1024, 1024, 1024, 1024, 1024, 1024, 1024, 1024, 1024, 1024, 1024, 1024, 1024, 1024, 1024, 1024, 1024, 1024, 1024, 1024, 1024, 1024, 1024, 1024, 1024, 1024, 1024, 1024, 1024, 1024, 1024, 1024, 1024, 1024, 1024, 1024, 1024, 1024, 1024, 1024, 1024, 1024, 1024, 1024, 1024, 1024, 1024, 1024, 1024, 1024, 1024, 1024, 1024, 1024, 1024, 1024, 1024, 1024, 1024, 1024, 1024, 1024, 1024, 1024, 1024, 1024, 1024, 1024, 1024, 1024, 1024, 1024, 1024, 1024, 1024, 1024, 1024, 1024, 1024, 1024, 1024, 1024, 1024, 1024, 1024, 1024, 1024, 1024, 1024, 1024, 1024, 1024, 1024, 1024, 1024, 1024, 1024, 1024, 1024, 1024, 1024, 1024, 1024, 1024, 1024, 1024, 1024, 1024, 1024, 1024, 1024, 1024, 1024, 1024, 1024, 1024, 1024, 1024, 1024, 1024, 1024, 1024, 1024, 1024, 1024, 1024, 1024, 1024, 1024, 1024, 1024, 1024, 1024, 1024, 1024, 1024, 1024, 1024, 1024, 1024, 1024, 1024, 1024, 1024, 1024, 1024, 1024, 1024, 1024, 1024, 1024, 1024, 1024, 1024, 1024, 1024, 1024, 1024, 1024, 1024, 1024, 1024, 1024, 1024, 1024, 1024, 1024, 1024, 1024, 1024, 1024, 1024, 1024, 1024, 1024, 1024, 1024, 1024]","[5.051487918244324e-05, 0.0002980377871764151, 0.0005455606951703869, 0.0007930836031643588, 0.0010406065111583308, 0.0012881294191523025, 0.0015356523271462745, 0.0017831752351402462, 0.002030698143134218, 0.00227822105112819, 0.002525743959122162, 0.002084864853703878, 0.0019797565083994858, 0.0019190239170720866, 0.001876577973342039, 0.0018440967772343044, 0.0018178704752361996, 0.0017959268981150428, 0.0017770944945941164, 0.0017606215429044787, 0.0017459974819933847, 0.0017328600308405746, 0.0017209430284930395, 0.0017100453160035349, 0.0017000112443709271, 0.0016907179642908427, 0.0016820668538598375, 0.0016739775685819165, 0.001666383807903993, 0.001659230237319848, 0.0016524702077062364, 0.0016460640366920813, 0.0016399776939358295, 0.0016341817817068602, 0.0016286507347358853, 0.001623362185173344, 0.0016182964534668604, 0.0016134361363944851, 0.0016087657708650858, 0.0016042715573892626, 0.0015999411309722037, 0.001595763370012311, 0.0015917282358979378, 0.0015878266375807335, 0.0015840503166090038, 0.001580391749028161, 0.0015768440612694823, 0.0015734009577049383, 0.0015700566579828854, 0.0015668058426049915, 0.0015636436054798802, 0.001560565412409355, 0.0015575670646406814, 0.0015546446667623226, 0.001551794598337809, 0.001549013488768455, 0.0015462981949546683, 0.0015436457813909244, 0.0015410535023837417, 0.0015385187861272065, 0.0015360392204084876, 0.0015336125397475892, 0.0015312366138024408, 0.0015289094368931507, 0.0015266291185185342, 0.001524393874754488, 0.001522202020437827, 0.0015200519620512543, 0.001517942191235493, 0.0015158712788635432, 0.0015138378696197524, 0.0015118406770330696, 0.0015098784789196857, 0.0015079501131953113, 0.0015060544740217751, 0.0015041905082564956, 0.0015023572121767627, 0.0015005536284537575, 0.0014987788433538582, 0.001497031984147097, 0.0014953122167046771, 0.0014936187432692833, 0.001491950800383511, 0.0014903076569631828, 0.0014886886125035895, 0.0014870929954078217, 0.001485520161427383, 0.0014839694922061735, 0.0014824403939197467, 0.001480932296002478, 0.0014794446499559267, 0.0014779769282322716, 0.0014765286231872335, 0.0014750992460973616, 0.0014736883262370156, 0.0014722954100107476, 0.001470920060137152, 0.0014695618548805746, 0.0014682203873273578, 0.0014668952647035635, 0.0014655861077313675, 0.0014642925500215275, 0.0014630142374995273, 0.0014617508278631955, 0.0014605019900697464, 0.001459267403850359, 0.0014580467592505393, 0.0014568397561946468, 0.0014556461040730762, 0.0014544655213507042, 0.0014532977351952975, 0.0014521424811246777, 0.0014509995026715252, 0.0014498685510647706, 0.0014487493849266056, 0.0014476417699842026, 0.0014465454787952986, 0.0014454602904868516, 0.0014443859905060312, 0.001443322370382854, 0.0014422692275038174, 0.0014412263648959259, 0.0014401935910205463, 0.0014391707195765622, 0.0014381575693123239, 0.0014371539638459354, 0.001436159731493436, 0.0014351747051044622, 0.0014341987219050104, 0.0014332316233469302, 0.001432273254963809, 0.0014313234662329246, 0.0014303821104429668, 0.0014294490445672316, 0.0014285241291420324, 0.0014276072281500637, 0.0014266982089084811, 0.001425796941961471, 0.0014249033009770976, 0.0014240171626482205, 0.0014231384065972984, 0.0014222669152848917, 0.0014214025739216999, 0.0014205452703839616, 0.0014196948951320787, 0.001418851341132303, 0.0014180145037813623, 0.001417184280833884, 0.001416360572332502, 0.0014155432805405188, 0.0014147323098770241, 0.0014139275668543514, 0.0014131289600177808, 0.0014123363998873885, 0.0014115497989019535, 0.0014107690713648325, 0.0014099941333917253, 0.0014092249028602485, 0.0014084612993612439, 0.0014077032441517513, 0.0014069506601095798, 0.0014062034716894076, 0.0014054616048803546, 0.0014047249871649676, 0.0014039935474795602, 0.0014032672161758558, 0.0014025459249838842, 0.0014018296069760793, 0.001401118196532534, 0.0014004116293073715, 0.0013997098421961803, 0.001399012773304484, 0.0013983203619172013, 0.0013976325484690573, 0.0013969492745159174, 0.001396270482707001, 0.0013955961167579527, 0.0013949261214247295, 0.0013942604424782826, 0.0013935990266799995, 0.0013929418217578848, 0.001392288776383446, 0.001391639840149267, 0.0013909949635472396, 0.001390354097947431, 0.0013897171955775695, 0.0013890842095031196, 0.0013890211245094631]","[16.0, 1.7665957815641465e-05, 4.7475471028343807e-05, 5.371997401724408e-05, 9.367745779066276e-05, 0.00010599896092682196, 0.0001357171188342471, 0.00019662293126943784, 0.0001535681466565814, 0.0002091546007442082, 0.00030301697413014723, 0.0003223296175768086, 0.0003647260007357621, 0.0003879716397899993, 0.0004669815774700653, 0.0004967444273161115, 0.0005284041983121468, 0.0005979058067056204, 0.0006360130503435115, 0.0005979058067056204, 0.0009214368191597745, 0.0007196685740870995, 0.0008662281762778711, 0.0008143274045223257, 0.0008662281762778711, 0.0010426344575758478, 0.0010426344575758478, 0.0011090862713139026, 0.0011090862713139026, 0.0009214368191597745, 0.001179773359952946, 0.0011090862713139026, 0.0011090862713139026, 0.0012549656567344947, 0.0014200327245212918, 0.0013349502989674698, 0.0012549656567344947, 0.0016068112524755568, 0.0016068112524755568, 0.0017092206072459447, 0.0014200327245212918, 0.0016068112524755568, 0.001818156973778498, 0.001510537838203444, 0.0017092206072459447, 0.0019340363480790394, 0.0021884223603633847, 0.002057301239461959, 0.002057301239461959, 0.002327900423853803, 0.0019340363480790394, 0.002057301239461959, 0.002327900423853803, 0.002057301239461959, 0.0019340363480790394, 0.002057301239461959, 0.0024762680557142897, 0.0024762680557142897, 0.002057301239461959, 0.002057301239461959, 0.0021884223603633847, 0.002057301239461959, 0.0024762680557142897, 0.0019340363480790394, 0.002801974424504067, 0.0026340918283780184, 0.0024762680557142897, 0.002980556938445577, 0.0026340918283780184, 0.003170521324400895, 0.0026340918283780184, 0.0024762680557142897, 0.0026340918283780184, 0.002980556938445577, 0.002801974424504067, 0.002980556938445577, 0.002980556938445577, 0.003587543619446129, 0.002801974424504067, 0.0026340918283780184, 0.003170521324400895, 0.003587543619446129, 0.003372593000596473, 0.0038161940142650993, 0.004059417333791517, 0.003372593000596473, 0.003587543619446129, 0.004059417333791517, 0.0045933571373359796, 0.002980556938445577, 0.0045933571373359796, 0.004886112580727232, 0.003372593000596473, 0.004318142376485131, 0.0045933571373359796, 0.004059417333791517, 0.004318142376485131, 0.0045933571373359796, 0.004059417333791517, 0.004318142376485131, 0.00552878855536345, 0.004886112580727232, 0.00519752665375966, 0.00519752665375966, 0.004886112580727232, 0.00519752665375966, 0.004886112580727232, 0.00519752665375966, 0.00519752665375966, 0.004886112580727232, 0.00552878855536345, 0.00552878855536345, 0.00552878855536345, 0.006065685163471772, 0.00552878855536345, 0.006065685163471772, 0.005881163277499826, 0.005881163277499826, 0.007300954336786124, 0.005881163277499826, 0.00552878855536345, 0.00519752665375966, 0.006452278736845388, 0.006452278736845388, 0.0070788548002437834, 0.007530022260945431, 0.0070788548002437834, 0.006065685163471772, 0.008009944666244748, 0.008261257208782206, 0.008009944666244748, 0.007530022260945431, 0.006654719408046329, 0.00776627720634308, 0.00776627720634308, 0.00776627720634308, 0.008009944666244748, 0.008520454698927704, 0.008520454698927704, 0.008261257208782206, 0.007300954336786124, 0.008787784527432828, 0.008261257208782206, 0.009641159847960946, 0.010255634608295545, 0.009641159847960946, 0.011251551775330382, 0.008787784527432828, 0.009063501846950324, 0.010577405820974124, 0.010255634608295545, 0.009943651874480406, 0.008520454698927704, 0.009347869815564258, 0.008520454698927704, 0.010909272626686497, 0.007530022260945431, 0.010909272626686497, 0.008520454698927704, 0.010255634608295545, 0.009943651874480406, 0.011251551775330382, 0.009347869815564258, 0.010577405820974124, 0.010577405820974124, 0.010255634608295545, 0.009943651874480406, 0.013130932309945564, 0.010909272626686497, 0.010577405820974124, 0.011968664103055214, 0.010255634608295545, 0.010255634608295545, 0.012344181729187052, 0.010577405820974124, 0.008520454698927704, 0.010255634608295545, 0.013130932309945564, 0.009943651874480406, 0.010255634608295545, 0.009943651874480406, 0.010577405820974124, 0.010255634608295545, 0.012344181729187052, 0.012344181729187052, 0.010577405820974124, 0.011968664103055214, 0.01273148124562189]"
