last_val_loss,dataset,ul2,causal_denoisers,noncausal_masking,causal_divider,s_divider,r_divider,x_divider,randomize_denoiser_settings,randomize_mask_width,no_special_tokens,alternate_denoisers,progressive_tasks,model_scale,depth,width,num_params,num_non_embedding_params,num_heads,linear_value,seed,run_num,max_epochs,max_steps,max_tokens,max_time_seconds,gpu_capacity_scalar,train_loss_causal,train_pplx_causal,train_acc_causal,train_loss_s,train_pplx_s,train_loss_r,train_pplx_r,train_loss_x,train_pplx_x,train_acc_x_causal,train_acc_r_causal,train_acc_s_causal,train_acc_x_masked,train_acc_r_masked,train_acc_s_masked,val_loss_causal,val_pplx_causal,val_acc_causal,val_loss_s,val_pplx_s,val_loss_r,val_pplx_r,val_loss_x,val_pplx_x,grad_norm,cumulative_time,tokens_seen,epoch,batch_size,seq_length,learning_rate,weight_decay
2.8072917461395264,fineweb,false,false,false,1.0,0.0,0.0,0.0,false,false,false,false,false,16.80486971279296,35,1664,773187619,605755939,1,false,1600,1,1.0,1000000000,1000000000000,1000000000,1.9,"[10.9375, 7.46875, 6.875, 6.4375, 6.46875, 6.28125, 6.15625, 6.0625, 6.0, 5.9375, 5.96875, 5.96875, 5.6875, 5.65625, 5.65625, 5.59375, 5.75, 5.6875, 5.40625, 5.4375, 5.34375, 5.53125, 5.375, 5.46875, 5.40625, 5.4375, 5.125, 5.375, 5.34375, 5.09375, 5.28125, 5.125, 5.21875, 5.09375, 5.0625, 5.0625, 5.0625, 5.03125, 4.9375, 5.15625, 4.875, 4.90625, 4.9375, 5.03125, 4.875, 4.96875, 4.78125, 4.90625, 4.90625, 4.96875, 4.875, 4.78125, 4.75, 4.78125, 4.8125, 4.78125, 5.0, 4.6875, 4.75, 4.75, 4.59375, 4.625, 4.5, 4.65625, 4.84375, 4.65625, 4.5, 4.5625, 4.59375, 4.46875, 4.6875, 4.4375, 4.40625, 4.5625, 4.40625, 4.46875, 4.375, 4.375, 4.3125, 4.46875, 4.3125, 4.25, 4.28125, 4.1875, 4.1875, 4.1875, 4.1875, 4.1875, 4.125, 4.15625, 4.15625, 4.15625, 4.0625, 4.1875, 4.34375, 4.03125, 4.0625, 4.09375, 4.0, 4.03125, 4.03125, 4.21875, 4.03125, 3.9375, 4.0625, 4.03125, 3.96875, 4.0, 3.96875, 3.890625, 4.125, 3.890625, 4.0, 4.15625, 3.921875, 3.828125, 3.765625, 3.734375, 3.984375, 3.8125, 4.125, 3.96875, 3.859375, 3.9375, 3.890625, 3.890625, 3.890625, 3.875, 3.703125, 3.734375, 4.03125, 3.8125, 3.796875, 3.875, 3.703125, 3.953125, 3.8125, 3.640625, 3.921875, 3.65625, 3.96875, 3.921875, 3.796875, 3.859375, 3.578125, 3.78125, 3.734375, 3.734375, 3.765625, 3.796875, 3.59375, 3.8125, 3.84375, 3.65625, 3.75, 3.734375, 3.625, 3.671875, 3.765625, 3.875, 3.671875, 3.6875, 3.625, 3.65625, 3.609375, 3.640625, 3.546875, 3.796875, 3.59375, 3.65625, 3.75, 3.703125, 3.640625, 3.546875, 3.6875, 3.75, 3.75, 3.625, 3.640625, 3.65625, 3.75, 3.84375, 3.75, 3.484375, 3.5625, 3.546875, 3.640625, 3.515625, 3.625, 3.53125, 3.8125, 3.671875, 3.609375, 3.59375, 3.515625, 3.640625, 3.625, 3.453125, 3.625, 3.4375, 3.5, 3.625, 3.578125, 3.609375, 3.765625, 3.578125, 3.515625, 3.5625, 3.671875, 3.359375, 3.5625, 3.5, 3.484375, 3.671875, 3.703125, 3.453125, 3.515625, 3.515625, 3.640625, 3.484375, 3.5, 3.53125, 3.421875, 3.53125, 3.625, 3.4375, 3.484375, 3.515625, 3.546875, 3.453125, 3.453125, 3.578125, 3.421875, 3.625, 3.46875, 3.515625, 3.65625, 3.546875, 3.421875, 3.390625, 3.671875, 3.59375, 3.640625, 3.421875, 3.46875, 3.484375, 3.421875, 3.375, 3.5, 3.25, 3.453125, 3.421875, 3.453125, 3.515625, 3.515625, 3.375, 3.46875, 3.578125, 3.4375, 3.46875, 3.546875, 3.453125, 3.359375, 3.328125, 3.40625, 3.5, 3.375, 3.40625, 3.390625, 3.390625, 3.53125, 3.4375, 3.34375, 3.375, 3.421875, 3.234375, 3.359375, 3.453125, 3.515625, 3.53125, 3.328125, 3.40625, 3.53125, 3.609375, 3.40625, 3.5, 3.40625, 3.4375, 3.28125, 3.28125, 3.5625, 3.40625, 3.4375, 3.453125, 3.46875, 3.421875, 3.390625, 3.421875, 3.28125, 3.375, 3.234375, 3.390625, 3.390625, 3.453125, 3.34375, 3.390625, 3.34375, 3.3125, 3.4375, 3.328125, 3.4375, 3.375, 3.46875, 3.25, 3.421875, 3.375, 3.34375, 3.375, 3.453125, 3.515625, 3.296875, 3.4375, 3.515625, 3.375, 3.59375, 3.25, 3.34375, 3.421875, 3.484375, 3.40625, 3.328125, 3.34375, 3.375, 3.5, 3.390625, 3.390625, 3.4375, 3.21875, 3.28125, 3.3125, 3.28125, 3.140625, 3.25, 3.421875, 3.25, 3.21875, 3.25, 3.203125, 3.234375, 3.34375, 3.296875, 3.3125, 3.3125, 3.328125, 3.421875, 3.34375, 3.265625, 3.34375, 3.40625, 3.234375, 3.375, 3.375, 3.375, 3.3125, 3.40625, 3.34375, 3.28125, 3.265625, 3.296875, 3.421875, 3.390625, 3.328125, 3.28125, 3.265625, 3.296875, 3.375, 3.359375, 3.328125, 3.28125, 3.234375, 3.34375, 3.25, 3.5, 3.34375, 3.1875, 3.25, 3.21875, 3.265625, 3.328125, 3.203125, 3.28125, 3.265625, 3.234375, 3.3125, 3.40625, 3.34375, 3.21875, 3.21875, 3.140625, 3.171875, 2.984375, 3.234375, 3.25, 3.203125, 3.09375, 3.171875, 3.21875, 3.234375, 3.109375, 3.234375, 3.203125, 3.328125, 3.09375, 3.09375, 3.125, 3.28125, 3.359375, 3.140625, 3.171875, 3.140625, 3.203125, 3.171875, 3.109375, 3.4375, 3.328125, 3.1875, 3.234375, 3.203125, 3.25, 3.1875, 3.140625, 3.140625, 3.328125, 3.328125, 3.109375, 3.3125, 3.1875, 3.125, 2.96875, 3.109375, 3.140625, 3.0625, 3.125, 3.15625, 3.234375, 3.296875, 3.046875, 3.203125, 3.21875, 3.109375, 3.171875, 3.0625, 3.171875, 3.265625, 3.234375, 3.09375, 3.328125, 2.90625, 3.140625, 3.15625, 3.140625, 3.21875, 3.21875, 3.125, 3.25, 3.296875, 3.25, 3.09375, 3.1875, 3.125, 3.109375, 3.25, 3.109375, 3.171875, 3.25, 3.375, 3.171875, 3.3125, 3.28125, 3.0625, 3.15625, 3.3125, 3.125, 3.125, 3.0625, 3.1875, 3.125, 3.09375, 2.96875, 3.203125, 3.1875, 3.078125, 3.015625, 3.21875, 3.125, 3.203125, 2.96875, 3.21875, 3.046875, 3.140625, 3.125, 3.265625, 3.171875, 3.125, 3.1875, 3.296875, 3.171875, 3.25, 3.109375, 3.125, 3.125, 3.09375, 3.25, 3.0625, 3.25, 3.140625, 3.265625, 3.203125, 3.0, 3.1875, 3.234375, 3.296875, 2.984375, 3.125, 3.125, 3.15625, 3.125, 2.984375, 3.0625, 3.078125, 3.15625, 3.21875, 3.140625, 3.125, 3.1875, 3.1875, 3.125, 3.109375, 3.15625, 3.109375, 3.28125, 3.09375, 3.15625, 3.125, 3.046875, 3.375, 3.203125, 3.140625, 3.0, 3.0625, 3.171875, 3.015625, 3.046875, 3.15625, 3.203125, 3.109375, 3.109375, 3.25, 3.109375, 3.109375, 3.0625, 3.109375, 3.109375, 3.125, 3.078125, 3.21875, 3.234375, 2.9375, 3.03125, 3.03125, 3.296875, 3.125, 3.078125, 3.046875, 3.03125, 3.09375, 3.078125, 3.078125, 3.125, 3.109375, 3.109375, 3.015625, 3.125, 3.265625, 3.015625, 3.171875, 3.28125, 3.0625, 3.28125, 3.28125, 3.125, 3.03125, 3.140625, 3.234375, 3.125, 3.078125, 3.046875, 3.1875, 3.046875, 3.140625, 3.078125, 3.1875, 2.96875, 3.125, 3.0625, 2.859375, 3.296875, 3.140625, 3.03125, 3.109375, 3.015625, 3.203125, 3.109375, 3.21875, 3.0625, 2.96875, 3.03125, 3.125, 3.15625, 2.921875, 3.046875, 3.1875, 2.96875, 3.171875, 3.234375, 3.0625, 3.046875, 3.15625, 3.046875, 3.203125, 2.890625, 3.09375, 3.015625, 3.1875, 3.09375, 3.125, 3.125, 3.09375, 3.140625, 2.9375, 2.984375, 3.234375, 3.078125, 3.140625, 2.953125, 3.203125, 3.09375, 3.0625, 3.203125, 3.078125, 3.140625, 3.109375, 2.984375, 3.0625, 3.09375, 3.015625, 3.0625, 3.171875, 3.046875, 3.046875, 3.171875, 3.25, 3.078125, 2.953125, 3.046875, 2.953125, 3.015625, 3.078125, 3.0625, 2.953125, 3.125, 2.984375, 3.015625, 3.140625, 3.046875, 3.0625, 3.21875, 3.078125, 3.21875, 3.078125, 3.21875, 3.1875, 2.984375, 3.125, 3.03125, 3.125, 2.9375, 3.109375, 3.125, 2.953125, 3.140625, 3.21875, 2.984375, 3.0, 3.140625, 3.0, 3.109375, 3.234375, 3.15625, 3.046875, 3.171875, 2.96875, 3.125, 3.28125, 3.03125, 2.953125, 3.03125, 3.140625, 3.0, 3.109375, 3.03125, 3.0625, 3.046875, 3.109375, 3.015625, 3.125, 3.125, 3.0, 3.1875, 3.0625, 3.0, 2.90625, 2.90625, 3.109375, 2.953125, 2.984375, 3.109375, 3.09375, 2.984375, 3.203125, 2.984375, 3.109375, 3.0625, 3.09375, 3.15625, 3.0625, 3.140625, 3.0625, 3.09375, 3.1875, 2.984375, 3.015625, 3.109375, 3.046875, 3.1875, 3.015625, 2.984375, 2.953125, 2.890625, 2.796875, 2.953125, 3.0625, 2.828125, 3.078125, 2.828125, 3.0, 3.203125, 3.015625, 2.96875, 3.0, 2.9375, 2.8125, 3.015625, 3.0625, 2.90625, 3.0, 3.03125, 3.1875, 3.078125, 3.21875, 2.875, 3.09375, 3.15625, 3.046875, 2.953125, 2.96875, 3.046875, 3.078125, 3.078125, 3.15625, 3.109375, 2.984375, 2.921875, 3.0625, 3.125, 2.9375, 2.96875, 3.125, 3.09375, 3.0625, 3.078125, 3.0, 3.0625, 2.90625, 3.015625, 3.03125, 2.859375, 3.078125, 3.0, 2.984375, 2.984375, 2.984375, 2.921875, 2.96875, 3.046875, 2.921875, 3.140625, 3.015625, 2.78125, 2.953125, 3.03125, 2.9375, 2.96875, 2.96875, 2.984375, 2.9375, 3.03125, 3.0, 2.984375, 3.09375, 3.046875, 2.859375, 3.125, 3.03125, 3.0, 3.0, 2.828125, 2.984375, 2.9375, 2.984375, 3.078125, 2.78125, 2.984375, 2.96875, 2.921875, 3.015625, 3.0, 3.1875, 2.78125, 2.875, 2.90625, 2.953125, 2.890625, 3.03125, 2.875, 2.96875, 3.03125, 2.9375, 3.0625, 2.953125, 3.109375, 2.984375, 2.875, 2.921875, 3.0625, 2.9375, 2.859375, 2.90625, 2.984375, 3.0, 3.078125, 3.09375, 2.953125, 2.9375, 3.140625, 3.015625, 2.953125, 2.96875, 3.078125, 3.15625, 3.03125, 2.921875, 2.859375, 3.0625, 2.9375, 2.96875, 3.078125, 3.0625, 2.953125, 3.046875, 3.0625, 3.140625, 2.953125, 2.921875, 2.921875, 3.03125, 2.953125, 3.125, 2.96875, 2.953125, 2.875, 2.953125, 2.71875, 2.921875, 3.0, 2.984375, 2.84375, 2.890625, 2.859375, 2.984375, 2.890625, 3.015625, 2.890625, 3.234375, 2.96875, 3.015625, 3.03125, 2.984375, 3.03125, 2.96875, 3.03125, 3.0, 2.859375, 2.90625, 3.265625, 3.0625, 2.96875, 2.90625, 3.03125, 2.96875, 3.0625, 2.953125, 3.015625, 2.90625, 3.0, 2.796875, 2.984375, 2.953125, 2.890625, 3.09375, 2.796875, 3.078125, 3.015625, 2.84375, 2.875, 2.921875, 3.015625, 3.09375, 3.015625, 3.0, 2.859375, 2.765625, 3.078125, 3.046875, 3.03125, 3.03125, 2.859375, 3.125, 2.6875, 2.984375, 2.859375, 3.0625, 2.953125, 2.9375, 3.046875, 2.765625, 2.84375, 3.125, 2.953125, 2.921875, 2.890625, 2.984375, 3.09375, 2.953125, 2.828125, 3.0, 3.0, 3.015625, 2.921875, 3.046875, 2.921875, 2.953125, 2.90625, 2.90625, 2.984375, 2.9375, 2.96875, 2.875, 3.03125, 3.0, 3.0, 2.8125, 2.828125, 2.90625, 2.984375, 2.9375, 2.8125, 2.9375, 3.015625, 3.15625, 3.078125, 3.0, 2.96875, 2.96875, 2.859375, 2.796875, 2.828125, 2.96875, 2.875, 2.953125, 2.953125, 2.875, 3.09375, 2.859375, 2.96875, 3.03125, 2.90625, 3.09375, 3.046875, 2.875, 2.953125, 2.984375, 2.96875, 3.03125, 2.953125, 3.078125, 2.9375, 2.953125, 2.875, 2.875, 2.984375, 3.015625, 2.984375, 2.953125, 2.90625, 2.859375, 2.984375, 2.859375, 2.9375, 2.984375, 2.796875, 2.796875, 2.921875, 2.9375, 2.828125, 2.859375, 2.90625, 2.78125, 2.890625, 3.0, 2.875, 2.84375, 2.953125, 2.859375, 2.953125, 2.84375, 2.90625, 2.90625, 2.859375, 2.953125, 2.8125, 2.984375, 2.765625, 2.828125, 2.84375, 2.875, 2.859375, 2.921875, 2.953125, 2.828125, 2.921875, 3.0, 2.96875, 2.765625, 2.875, 2.8125, 2.890625, 2.859375, 2.890625, 2.84375, 2.734375, 2.921875, 2.78125, 3.046875, 2.75, 2.8125, 2.84375, 2.953125, 3.0, 2.96875, 2.921875, 2.859375, 2.9375, 2.84375, 2.921875, 2.921875, 2.90625, 2.859375, 2.8125, 2.921875, 2.921875, 2.9375, 2.890625, 2.96875, 2.921875, 2.71875, 2.90625, 2.859375, 2.90625, 2.765625, 2.984375, 2.921875, 2.96875, 2.953125, 2.953125, 2.984375, 2.875, 2.921875, 2.890625, 2.84375, 2.734375, 2.765625, 3.03125, 3.03125, 2.703125, 2.96875, 2.828125, 2.875, 2.984375, 2.984375, 2.875, 3.0, 2.953125, 2.8125, 2.609375, 2.890625, 2.8125, 2.890625, 2.96875, 3.0, 2.875, 2.734375, 2.921875, 2.921875, 2.953125, 2.765625, 3.015625, 3.078125, 2.890625, 2.765625, 2.78125, 2.875, 2.9375, 3.03125, 2.875, 2.734375, 2.796875, 2.84375, 2.84375, 2.96875, 2.875, 2.875, 2.78125, 2.8125, 2.921875, 2.78125, 2.921875, 2.8125, 2.78125, 2.796875, 2.84375, 2.96875, 2.875, 2.90625, 2.9375, 3.015625, 2.828125, 2.765625, 2.75, 2.921875, 2.96875, 2.796875, 2.78125, 2.671875, 2.921875, 2.859375, 2.921875, 2.890625, 2.796875, 2.796875, 2.96875, 2.875, 2.796875, 2.9375, 2.953125, 2.734375, 2.84375, 2.65625, 2.890625, 2.984375, 2.859375, 2.75, 2.8125, 2.75, 2.65625, 2.75, 2.9375, 2.828125, 2.90625, 2.84375, 2.9375, 2.90625, 2.84375, 2.875, 2.84375, 2.828125, 2.84375, 2.9375, 2.984375, 2.828125, 2.796875, 2.734375, 2.796875, 2.84375, 2.9375, 2.796875, 2.671875, 2.828125, 3.015625, 2.96875, 2.9375, 3.03125, 2.84375, 2.796875, 2.875, 2.859375, 2.890625, 2.78125, 3.03125, 2.828125, 2.65625, 2.84375, 2.859375, 2.859375, 2.890625, 2.859375, 2.796875, 3.03125, 2.90625, 2.78125, 2.78125, 2.859375, 2.84375, 2.921875, 2.875, 2.828125, 2.96875, 2.8125, 2.84375, 2.78125, 2.796875, 2.859375, 2.921875, 2.8125, 2.796875, 2.6875, 2.84375, 2.875, 2.78125, 3.015625, 2.828125, 3.0, 2.984375, 2.8125, 2.6875, 2.796875, 2.9375, 2.828125, 3.046875, 2.8125, 2.953125, 2.703125, 2.890625, 2.953125, 2.734375, 2.78125, 2.734375, 2.78125, 2.78125, 2.71875, 2.671875, 2.8125, 2.859375, 2.875, 2.96875, 2.890625, 2.71875, 2.8125, 2.953125, 2.8125, 2.765625, 2.78125, 2.90625, 2.765625, 2.8125, 2.78125, 2.875, 2.875, 2.796875, 2.78125, 2.6875, 2.671875, 2.796875, 2.6875, 2.796875, 2.859375, 2.75, 2.953125, 2.765625, 2.921875, 2.6875, 2.828125, 2.703125, 2.859375, 2.734375, 2.734375, 2.96875, 2.96875, 2.625, 2.671875, 2.828125, 2.90625, 2.671875, 2.890625, 2.828125, 2.78125, 2.828125, 2.84375, 2.546875, 2.796875, 2.875, 2.796875, 2.703125, 2.765625, 2.6875, 2.875, 2.859375, 2.859375, 2.578125, 2.8125, 2.65625, 2.6875, 2.5625, 2.90625, 2.8125, 2.703125, 2.78125, 2.625, 2.609375, 2.796875, 2.796875, 2.625, 2.703125, 2.84375, 2.515625, 2.71875, 2.78125, 2.734375, 2.75, 2.78125, 2.828125, 2.65625, 2.78125, 2.765625, 2.671875, 2.734375, 2.75, 2.71875, 2.71875, 2.765625, 2.6875]","[56320.0, 1752.0, 968.0, 624.0, 644.0, 536.0, 472.0, 430.0, 404.0, 380.0, 392.0, 392.0, 296.0, 286.0, 286.0, 270.0, 314.0, 296.0, 223.0, 230.0, 209.0, 253.0, 216.0, 237.0, 223.0, 230.0, 168.0, 216.0, 209.0, 163.0, 197.0, 168.0, 185.0, 163.0, 158.0, 158.0, 158.0, 153.0, 140.0, 174.0, 131.0, 135.0, 140.0, 153.0, 131.0, 144.0, 119.5, 135.0, 135.0, 144.0, 131.0, 119.5, 115.5, 119.5, 123.0, 119.5, 149.0, 108.5, 115.5, 115.5, 99.0, 102.0, 90.0, 105.5, 127.0, 105.5, 90.0, 96.0, 99.0, 87.5, 108.5, 84.5, 82.0, 96.0, 82.0, 87.5, 79.5, 79.5, 74.5, 87.5, 74.5, 70.0, 72.5, 66.0, 66.0, 66.0, 66.0, 66.0, 62.0, 64.0, 64.0, 64.0, 58.25, 66.0, 77.0, 56.25, 58.25, 60.0, 54.75, 56.25, 56.25, 68.0, 56.25, 51.25, 58.25, 56.25, 53.0, 54.75, 53.0, 49.0, 62.0, 49.0, 54.75, 64.0, 50.5, 46.0, 43.25, 42.0, 53.75, 45.25, 62.0, 53.0, 47.5, 51.25, 49.0, 49.0, 49.0, 48.25, 40.5, 42.0, 56.25, 45.25, 44.5, 48.25, 40.5, 52.25, 45.25, 38.25, 50.5, 38.75, 53.0, 50.5, 44.5, 47.5, 35.75, 44.0, 42.0, 42.0, 43.25, 44.5, 36.5, 45.25, 46.75, 38.75, 42.5, 42.0, 37.5, 39.25, 43.25, 48.25, 39.25, 40.0, 37.5, 38.75, 37.0, 38.25, 34.75, 44.5, 36.5, 38.75, 42.5, 40.5, 38.25, 34.75, 40.0, 42.5, 42.5, 37.5, 38.25, 38.75, 42.5, 46.75, 42.5, 32.5, 35.25, 34.75, 38.25, 33.75, 37.5, 34.25, 45.25, 39.25, 37.0, 36.5, 33.75, 38.25, 37.5, 31.625, 37.5, 31.125, 33.25, 37.5, 35.75, 37.0, 43.25, 35.75, 33.75, 35.25, 39.25, 28.75, 35.25, 33.25, 32.5, 39.25, 40.5, 31.625, 33.75, 33.75, 38.25, 32.5, 33.25, 34.25, 30.625, 34.25, 37.5, 31.125, 32.5, 33.75, 34.75, 31.625, 31.625, 35.75, 30.625, 37.5, 32.0, 33.75, 38.75, 34.75, 30.625, 29.75, 39.25, 36.5, 38.25, 30.625, 32.0, 32.5, 30.625, 29.25, 33.25, 25.75, 31.625, 30.625, 31.625, 33.75, 33.75, 29.25, 32.0, 35.75, 31.125, 32.0, 34.75, 31.625, 28.75, 27.875, 30.125, 33.25, 29.25, 30.125, 29.75, 29.75, 34.25, 31.125, 28.375, 29.25, 30.625, 25.375, 28.75, 31.625, 33.75, 34.25, 27.875, 30.125, 34.25, 37.0, 30.125, 33.25, 30.125, 31.125, 26.625, 26.625, 35.25, 30.125, 31.125, 31.625, 32.0, 30.625, 29.75, 30.625, 26.625, 29.25, 25.375, 29.75, 29.75, 31.625, 28.375, 29.75, 28.375, 27.5, 31.125, 27.875, 31.125, 29.25, 32.0, 25.75, 30.625, 29.25, 28.375, 29.25, 31.625, 33.75, 27.0, 31.125, 33.75, 29.25, 36.5, 25.75, 28.375, 30.625, 32.5, 30.125, 27.875, 28.375, 29.25, 33.25, 29.75, 29.75, 31.125, 25.0, 26.625, 27.5, 26.625, 23.125, 25.75, 30.625, 25.75, 25.0, 25.75, 24.625, 25.375, 28.375, 27.0, 27.5, 27.5, 27.875, 30.625, 28.375, 26.25, 28.375, 30.125, 25.375, 29.25, 29.25, 29.25, 27.5, 30.125, 28.375, 26.625, 26.25, 27.0, 30.625, 29.75, 27.875, 26.625, 26.25, 27.0, 29.25, 28.75, 27.875, 26.625, 25.375, 28.375, 25.75, 33.25, 28.375, 24.25, 25.75, 25.0, 26.25, 27.875, 24.625, 26.625, 26.25, 25.375, 27.5, 30.125, 28.375, 25.0, 25.0, 23.125, 23.875, 19.75, 25.375, 25.75, 24.625, 22.125, 23.875, 25.0, 25.375, 22.375, 25.375, 24.625, 27.875, 22.125, 22.125, 22.75, 26.625, 28.75, 23.125, 23.875, 23.125, 24.625, 23.875, 22.375, 31.125, 27.875, 24.25, 25.375, 24.625, 25.75, 24.25, 23.125, 23.125, 27.875, 27.875, 22.375, 27.5, 24.25, 22.75, 19.5, 22.375, 23.125, 21.375, 22.75, 23.5, 25.375, 27.0, 21.0, 24.625, 25.0, 22.375, 23.875, 21.375, 23.875, 26.25, 25.375, 22.125, 27.875, 18.25, 23.125, 23.5, 23.125, 25.0, 25.0, 22.75, 25.75, 27.0, 25.75, 22.125, 24.25, 22.75, 22.375, 25.75, 22.375, 23.875, 25.75, 29.25, 23.875, 27.5, 26.625, 21.375, 23.5, 27.5, 22.75, 22.75, 21.375, 24.25, 22.75, 22.125, 19.5, 24.625, 24.25, 21.75, 20.375, 25.0, 22.75, 24.625, 19.5, 25.0, 21.0, 23.125, 22.75, 26.25, 23.875, 22.75, 24.25, 27.0, 23.875, 25.75, 22.375, 22.75, 22.75, 22.125, 25.75, 21.375, 25.75, 23.125, 26.25, 24.625, 20.125, 24.25, 25.375, 27.0, 19.75, 22.75, 22.75, 23.5, 22.75, 19.75, 21.375, 21.75, 23.5, 25.0, 23.125, 22.75, 24.25, 24.25, 22.75, 22.375, 23.5, 22.375, 26.625, 22.125, 23.5, 22.75, 21.0, 29.25, 24.625, 23.125, 20.125, 21.375, 23.875, 20.375, 21.0, 23.5, 24.625, 22.375, 22.375, 25.75, 22.375, 22.375, 21.375, 22.375, 22.375, 22.75, 21.75, 25.0, 25.375, 18.875, 20.75, 20.75, 27.0, 22.75, 21.75, 21.0, 20.75, 22.125, 21.75, 21.75, 22.75, 22.375, 22.375, 20.375, 22.75, 26.25, 20.375, 23.875, 26.625, 21.375, 26.625, 26.625, 22.75, 20.75, 23.125, 25.375, 22.75, 21.75, 21.0, 24.25, 21.0, 23.125, 21.75, 24.25, 19.5, 22.75, 21.375, 17.5, 27.0, 23.125, 20.75, 22.375, 20.375, 24.625, 22.375, 25.0, 21.375, 19.5, 20.75, 22.75, 23.5, 18.625, 21.0, 24.25, 19.5, 23.875, 25.375, 21.375, 21.0, 23.5, 21.0, 24.625, 18.0, 22.125, 20.375, 24.25, 22.125, 22.75, 22.75, 22.125, 23.125, 18.875, 19.75, 25.375, 21.75, 23.125, 19.125, 24.625, 22.125, 21.375, 24.625, 21.75, 23.125, 22.375, 19.75, 21.375, 22.125, 20.375, 21.375, 23.875, 21.0, 21.0, 23.875, 25.75, 21.75, 19.125, 21.0, 19.125, 20.375, 21.75, 21.375, 19.125, 22.75, 19.75, 20.375, 23.125, 21.0, 21.375, 25.0, 21.75, 25.0, 21.75, 25.0, 24.25, 19.75, 22.75, 20.75, 22.75, 18.875, 22.375, 22.75, 19.125, 23.125, 25.0, 19.75, 20.125, 23.125, 20.125, 22.375, 25.375, 23.5, 21.0, 23.875, 19.5, 22.75, 26.625, 20.75, 19.125, 20.75, 23.125, 20.125, 22.375, 20.75, 21.375, 21.0, 22.375, 20.375, 22.75, 22.75, 20.125, 24.25, 21.375, 20.125, 18.25, 18.25, 22.375, 19.125, 19.75, 22.375, 22.125, 19.75, 24.625, 19.75, 22.375, 21.375, 22.125, 23.5, 21.375, 23.125, 21.375, 22.125, 24.25, 19.75, 20.375, 22.375, 21.0, 24.25, 20.375, 19.75, 19.125, 18.0, 16.375, 19.125, 21.375, 16.875, 21.75, 16.875, 20.125, 24.625, 20.375, 19.5, 20.125, 18.875, 16.625, 20.375, 21.375, 18.25, 20.125, 20.75, 24.25, 21.75, 25.0, 17.75, 22.125, 23.5, 21.0, 19.125, 19.5, 21.0, 21.75, 21.75, 23.5, 22.375, 19.75, 18.625, 21.375, 22.75, 18.875, 19.5, 22.75, 22.125, 21.375, 21.75, 20.125, 21.375, 18.25, 20.375, 20.75, 17.5, 21.75, 20.125, 19.75, 19.75, 19.75, 18.625, 19.5, 21.0, 18.625, 23.125, 20.375, 16.125, 19.125, 20.75, 18.875, 19.5, 19.5, 19.75, 18.875, 20.75, 20.125, 19.75, 22.125, 21.0, 17.5, 22.75, 20.75, 20.125, 20.125, 16.875, 19.75, 18.875, 19.75, 21.75, 16.125, 19.75, 19.5, 18.625, 20.375, 20.125, 24.25, 16.125, 17.75, 18.25, 19.125, 18.0, 20.75, 17.75, 19.5, 20.75, 18.875, 21.375, 19.125, 22.375, 19.75, 17.75, 18.625, 21.375, 18.875, 17.5, 18.25, 19.75, 20.125, 21.75, 22.125, 19.125, 18.875, 23.125, 20.375, 19.125, 19.5, 21.75, 23.5, 20.75, 18.625, 17.5, 21.375, 18.875, 19.5, 21.75, 21.375, 19.125, 21.0, 21.375, 23.125, 19.125, 18.625, 18.625, 20.75, 19.125, 22.75, 19.5, 19.125, 17.75, 19.125, 15.1875, 18.625, 20.125, 19.75, 17.25, 18.0, 17.5, 19.75, 18.0, 20.375, 18.0, 25.375, 19.5, 20.375, 20.75, 19.75, 20.75, 19.5, 20.75, 20.125, 17.5, 18.25, 26.25, 21.375, 19.5, 18.25, 20.75, 19.5, 21.375, 19.125, 20.375, 18.25, 20.125, 16.375, 19.75, 19.125, 18.0, 22.125, 16.375, 21.75, 20.375, 17.25, 17.75, 18.625, 20.375, 22.125, 20.375, 20.125, 17.5, 15.875, 21.75, 21.0, 20.75, 20.75, 17.5, 22.75, 14.6875, 19.75, 17.5, 21.375, 19.125, 18.875, 21.0, 15.875, 17.25, 22.75, 19.125, 18.625, 18.0, 19.75, 22.125, 19.125, 16.875, 20.125, 20.125, 20.375, 18.625, 21.0, 18.625, 19.125, 18.25, 18.25, 19.75, 18.875, 19.5, 17.75, 20.75, 20.125, 20.125, 16.625, 16.875, 18.25, 19.75, 18.875, 16.625, 18.875, 20.375, 23.5, 21.75, 20.125, 19.5, 19.5, 17.5, 16.375, 16.875, 19.5, 17.75, 19.125, 19.125, 17.75, 22.125, 17.5, 19.5, 20.75, 18.25, 22.125, 21.0, 17.75, 19.125, 19.75, 19.5, 20.75, 19.125, 21.75, 18.875, 19.125, 17.75, 17.75, 19.75, 20.375, 19.75, 19.125, 18.25, 17.5, 19.75, 17.5, 18.875, 19.75, 16.375, 16.375, 18.625, 18.875, 16.875, 17.5, 18.25, 16.125, 18.0, 20.125, 17.75, 17.25, 19.125, 17.5, 19.125, 17.25, 18.25, 18.25, 17.5, 19.125, 16.625, 19.75, 15.875, 16.875, 17.25, 17.75, 17.5, 18.625, 19.125, 16.875, 18.625, 20.125, 19.5, 15.875, 17.75, 16.625, 18.0, 17.5, 18.0, 17.25, 15.4375, 18.625, 16.125, 21.0, 15.625, 16.625, 17.25, 19.125, 20.125, 19.5, 18.625, 17.5, 18.875, 17.25, 18.625, 18.625, 18.25, 17.5, 16.625, 18.625, 18.625, 18.875, 18.0, 19.5, 18.625, 15.1875, 18.25, 17.5, 18.25, 15.875, 19.75, 18.625, 19.5, 19.125, 19.125, 19.75, 17.75, 18.625, 18.0, 17.25, 15.4375, 15.875, 20.75, 20.75, 14.9375, 19.5, 16.875, 17.75, 19.75, 19.75, 17.75, 20.125, 19.125, 16.625, 13.625, 18.0, 16.625, 18.0, 19.5, 20.125, 17.75, 15.4375, 18.625, 18.625, 19.125, 15.875, 20.375, 21.75, 18.0, 15.875, 16.125, 17.75, 18.875, 20.75, 17.75, 15.4375, 16.375, 17.25, 17.25, 19.5, 17.75, 17.75, 16.125, 16.625, 18.625, 16.125, 18.625, 16.625, 16.125, 16.375, 17.25, 19.5, 17.75, 18.25, 18.875, 20.375, 16.875, 15.875, 15.625, 18.625, 19.5, 16.375, 16.125, 14.5, 18.625, 17.5, 18.625, 18.0, 16.375, 16.375, 19.5, 17.75, 16.375, 18.875, 19.125, 15.4375, 17.25, 14.25, 18.0, 19.75, 17.5, 15.625, 16.625, 15.625, 14.25, 15.625, 18.875, 16.875, 18.25, 17.25, 18.875, 18.25, 17.25, 17.75, 17.25, 16.875, 17.25, 18.875, 19.75, 16.875, 16.375, 15.4375, 16.375, 17.25, 18.875, 16.375, 14.5, 16.875, 20.375, 19.5, 18.875, 20.75, 17.25, 16.375, 17.75, 17.5, 18.0, 16.125, 20.75, 16.875, 14.25, 17.25, 17.5, 17.5, 18.0, 17.5, 16.375, 20.75, 18.25, 16.125, 16.125, 17.5, 17.25, 18.625, 17.75, 16.875, 19.5, 16.625, 17.25, 16.125, 16.375, 17.5, 18.625, 16.625, 16.375, 14.6875, 17.25, 17.75, 16.125, 20.375, 16.875, 20.125, 19.75, 16.625, 14.6875, 16.375, 18.875, 16.875, 21.0, 16.625, 19.125, 14.9375, 18.0, 19.125, 15.4375, 16.125, 15.4375, 16.125, 16.125, 15.1875, 14.5, 16.625, 17.5, 17.75, 19.5, 18.0, 15.1875, 16.625, 19.125, 16.625, 15.875, 16.125, 18.25, 15.875, 16.625, 16.125, 17.75, 17.75, 16.375, 16.125, 14.6875, 14.5, 16.375, 14.6875, 16.375, 17.5, 15.625, 19.125, 15.875, 18.625, 14.6875, 16.875, 14.9375, 17.5, 15.4375, 15.4375, 19.5, 19.5, 13.8125, 14.5, 16.875, 18.25, 14.5, 18.0, 16.875, 16.125, 16.875, 17.25, 12.75, 16.375, 17.75, 16.375, 14.9375, 15.875, 14.6875, 17.75, 17.5, 17.5, 13.1875, 16.625, 14.25, 14.6875, 13.0, 18.25, 16.625, 14.9375, 16.125, 13.8125, 13.625, 16.375, 16.375, 13.8125, 14.9375, 17.25, 12.375, 15.1875, 16.125, 15.4375, 15.625, 16.125, 16.875, 14.25, 16.125, 15.875, 14.5, 15.4375, 15.625, 15.1875, 15.1875, 15.875, 14.6875]","[0.0, 0.07957300543785095, 0.08856411278247833, 0.09203259646892548, 0.1034819483757019, 0.10849945992231369, 0.12873788177967072, 0.09799299389123917, 0.09620824456214905, 0.11934266984462738, 0.12486530095338821, 0.1132475733757019, 0.12031923234462738, 0.12648168206214905, 0.12550511956214905, 0.14496901631355286, 0.12149784713983536, 0.11796201765537262, 0.1327451467514038, 0.13513603806495667, 0.13651670515537262, 0.13351966440677643, 0.12449488043785095, 0.12853582203388214, 0.1328798532485962, 0.13358701765537262, 0.13722386956214905, 0.12914197146892548, 0.13894127309322357, 0.14298221468925476, 0.14099541306495667, 0.14860586822032928, 0.12220501154661179, 0.13166756927967072, 0.14480064809322357, 0.13843615353107452, 0.1269194483757019, 0.14786502718925476, 0.1444638967514038, 0.1220366358757019, 0.1455414891242981, 0.18409886956214905, 0.14624865353107452, 0.11186692118644714, 0.1533539891242981, 0.16261449456214905, 0.15648572146892548, 0.18325699865818024, 0.11839978396892548, 0.1346982717514038, 0.16089709103107452, 0.12614493072032928, 0.1514008641242981, 0.14123113453388214, 0.15742860734462738, 0.12830010056495667, 0.13671875, 0.13998518884181976, 0.15173760056495667, 0.16530846059322357, 0.17692618072032928, 0.16140221059322357, 0.16820447146892548, 0.18194369971752167, 0.15604795515537262, 0.16375942528247833, 0.1728178858757019, 0.1366513967514038, 0.17898033559322357, 0.1768925040960312, 0.1435210108757019, 0.19484105706214905, 0.17756600677967072, 0.14921201765537262, 0.16668911278247833, 0.16093076765537262, 0.15978582203388214, 0.1971645951271057, 0.16049300134181976, 0.20056572556495667, 0.21433863043785095, 0.1904970407485962, 0.18302127718925476, 0.22322872281074524, 0.18723060190677643, 0.1757475733757019, 0.21622440218925476, 0.15880925953388214, 0.21049973368644714, 0.1513671875, 0.1952788233757019, 0.1932920217514038, 0.19214709103107452, 0.18911637365818024, 0.17106680572032928, 0.20002694427967072, 0.17517510056495667, 0.2127895951271057, 0.2089170217514038, 0.20474137365818024, 0.20871497690677643, 0.22110721468925476, 0.18507543206214905, 0.19106949865818024, 0.16251346468925476, 0.18396416306495667, 0.1973329782485962, 0.22023168206214905, 0.19797278940677643, 0.18531115353107452, 0.21837957203388214, 0.19894935190677643, 0.16921471059322357, 0.18534483015537262, 0.21137526631355286, 0.23700161278247833, 0.19676050543785095, 0.20922009646892548, 0.17130252718925476, 0.18224675953388214, 0.19578394293785095, 0.2031923532485962, 0.2168979048728943, 0.19763603806495667, 0.19743399322032928, 0.2383822798728943, 0.23380252718925476, 0.2098935842514038, 0.21733567118644714, 0.2139008641242981, 0.22117456793785095, 0.19164197146892548, 0.1982085108757019, 0.20430360734462738, 0.1923491358757019, 0.19211341440677643, 0.2226225733757019, 0.21716728806495667, 0.2206694483757019, 0.2129243016242981, 0.2148774266242981, 0.21049973368644714, 0.2149111032485962, 0.1972993016242981, 0.20561692118644714, 0.22615841031074524, 0.1661166548728943, 0.24238954484462738, 0.1640288233757019, 0.21612338721752167, 0.21157731115818024, 0.1974003165960312, 0.20851293206214905, 0.23767510056495667, 0.22346444427967072, 0.19484105706214905, 0.2392578125, 0.24542026221752167, 0.19477370381355286, 0.19878098368644714, 0.21080279350280762, 0.20386584103107452, 0.1971982717514038, 0.24063846468925476, 0.22834725677967072, 0.21858163177967072, 0.23161368072032928, 0.2472050040960312, 0.2490571141242981, 0.2527276277542114, 0.21218346059322357, 0.20642510056495667, 0.23575565218925476, 0.2168979048728943, 0.25343480706214905, 0.20076778531074524, 0.22302666306495667, 0.203125, 0.2167631983757019, 0.17924973368644714, 0.24683459103107452, 0.1963564157485962, 0.18702855706214905, 0.22124192118644714, 0.22393588721752167, 0.21736934781074524, 0.24959591031074524, 0.21043238043785095, 0.1942349076271057, 0.19578394293785095, 0.1942012459039688, 0.22413793206214905, 0.240234375, 0.1925175040960312, 0.2237675040960312, 0.20783944427967072, 0.19497574865818024, 0.21895204484462738, 0.21716728806495667, 0.22545123100280762, 0.19123788177967072, 0.2590247690677643, 0.2510439157485962, 0.2216796875, 0.20100350677967072, 0.2255185842514038, 0.21912041306495667, 0.23215247690677643, 0.20666082203388214, 0.23572197556495667, 0.21470904350280762, 0.24791216850280762, 0.25454607605934143, 0.22050108015537262, 0.23383620381355286, 0.20767106115818024, 0.23164735734462738, 0.2314789891242981, 0.21531519293785095, 0.24080684781074524, 0.24144665896892548, 0.2422885298728943, 0.22615841031074524, 0.25050511956214905, 0.21945716440677643, 0.27084454894065857, 0.22770743072032928, 0.23582300543785095, 0.19194504618644714, 0.2042362540960312, 0.23397091031074524, 0.23366783559322357, 0.22400322556495667, 0.2049770951271057, 0.2177397608757019, 0.20538119971752167, 0.22205010056495667, 0.24289466440677643, 0.20140759646892548, 0.23006466031074524, 0.23868533968925476, 0.21942348778247833, 0.23023302853107452, 0.25831761956214905, 0.2324892282485962, 0.21558459103107452, 0.2089170217514038, 0.22784213721752167, 0.20349541306495667, 0.26215651631355286, 0.23181572556495667, 0.20447197556495667, 0.23696793615818024, 0.21848060190677643, 0.2461611032485962, 0.22891971468925476, 0.2303677201271057, 0.19406653940677643, 0.24976427853107452, 0.25643184781074524, 0.22046740353107452, 0.23390355706214905, 0.21460802853107452, 0.21157731115818024, 0.25138065218925476, 0.2521551847457886, 0.2293911576271057, 0.2451845407485962, 0.2569032907485962, 0.2470366358757019, 0.19362877309322357, 0.2541083097457886, 0.2236328125, 0.23754040896892548, 0.24174973368644714, 0.16948410868644714, 0.20703125, 0.24774380028247833, 0.24380387365818024, 0.23986394703388214, 0.19292160868644714, 0.24787850677967072, 0.21504579484462738, 0.23410560190677643, 0.1961880326271057, 0.2403017282485962, 0.2551858723163605, 0.2188510298728943, 0.23326373100280762, 0.20093615353107452, 0.22090516984462738, 0.24077317118644714, 0.20528016984462738, 0.2766028940677643, 0.224609375, 0.24447737634181976, 0.2772427201271057, 0.28188982605934143, 0.2588564157485962, 0.23488011956214905, 0.2864358723163605, 0.22332973778247833, 0.2147427201271057, 0.23993130028247833, 0.19564925134181976, 0.22194908559322357, 0.20457300543785095, 0.26121363043785095, 0.24148033559322357, 0.19867995381355286, 0.23868533968925476, 0.24249057471752167, 0.24269261956214905, 0.2588227391242981, 0.22215113043785095, 0.21662850677967072, 0.22811153531074524, 0.2667025923728943, 0.24632947146892548, 0.20780576765537262, 0.27097925543785095, 0.20440463721752167, 0.2226225733757019, 0.21255387365818024, 0.2532327473163605, 0.28852370381355286, 0.2509428858757019, 0.24238954484462738, 0.24629579484462738, 0.2315463423728943, 0.24821524322032928, 0.27296605706214905, 0.23760776221752167, 0.23760776221752167, 0.2599003314971924, 0.23956088721752167, 0.2354862540960312, 0.2451508641242981, 0.22902074456214905, 0.2715517282485962, 0.2440395951271057, 0.23306168615818024, 0.24484778940677643, 0.24154768884181976, 0.22582165896892548, 0.23777613043785095, 0.24855199456214905, 0.23471175134181976, 0.2819235026836395, 0.21366514265537262, 0.22245420515537262, 0.23211880028247833, 0.22332973778247833, 0.20817618072032928, 0.23585668206214905, 0.21696524322032928, 0.2764008641242981, 0.2731344401836395, 0.22184805572032928, 0.2605401277542114, 0.24144665896892548, 0.2245756983757019, 0.2648841440677643, 0.23882004618644714, 0.22009697556495667, 0.24060478806495667, 0.2470703125, 0.23077182471752167, 0.21238550543785095, 0.1844356209039688, 0.21875, 0.23959456384181976, 0.2835061848163605, 0.2882879972457886, 0.20039735734462738, 0.2450498342514038, 0.2255185842514038, 0.1943359375, 0.2550175189971924, 0.2188173532485962, 0.22838091850280762, 0.22972790896892548, 0.2100619673728943, 0.22231949865818024, 0.24973060190677643, 0.24461206793785095, 0.2421875, 0.2723935842514038, 0.2362270951271057, 0.23551993072032928, 0.20160964131355286, 0.2420864701271057, 0.2450161576271057, 0.2509765625, 0.20447197556495667, 0.2137998342514038, 0.1942685842514038, 0.28364089131355286, 0.2639412581920624, 0.23912310600280762, 0.3156653940677643, 0.2890625, 0.22006331384181976, 0.2568022608757019, 0.2608768939971924, 0.2820581793785095, 0.251953125, 0.23282596468925476, 0.23757408559322357, 0.21652747690677643, 0.2830010652542114, 0.2256196141242981, 0.2830347418785095, 0.29842403531074524, 0.23161368072032928, 0.2168642282485962, 0.21171201765537262, 0.2763671875, 0.2616850733757019, 0.2909819483757019, 0.21639278531074524, 0.2512459456920624, 0.22396956384181976, 0.21245285868644714, 0.26245957612991333, 0.2412446141242981, 0.2480805516242981, 0.248046875, 0.2548828125, 0.2804754972457886, 0.2526603043079376, 0.23777613043785095, 0.24141298234462738, 0.2469692826271057, 0.23612608015537262, 0.25050511956214905, 0.25053879618644714, 0.24282731115818024, 0.22679822146892548, 0.2665342092514038, 0.24565598368644714, 0.2696996331214905, 0.2667362689971924, 0.26613011956214905, 0.20777209103107452, 0.2432987540960312, 0.23979660868644714, 0.2848531901836395, 0.2723262310028076, 0.24774380028247833, 0.2569369673728943, 0.24878771603107452, 0.2577788233757019, 0.24390490353107452, 0.23023302853107452, 0.22996363043785095, 0.27515488862991333, 0.2639412581920624, 0.2342739701271057, 0.2255859375, 0.27572736144065857, 0.27481815218925476, 0.23578932881355286, 0.3067079782485962, 0.24296201765537262, 0.21922144293785095, 0.2635034918785095, 0.2284482717514038, 0.21012930572032928, 0.2480805516242981, 0.24845096468925476, 0.2059199959039688, 0.3078192472457886, 0.24771012365818024, 0.2656586766242981, 0.22689925134181976, 0.22996363043785095, 0.27990302443504333, 0.24673356115818024, 0.25646552443504333, 0.26222386956214905, 0.23471175134181976, 0.2715854048728943, 0.2420864701271057, 0.2874124348163605, 0.2568696141242981, 0.2870420217514038, 0.2344086766242981, 0.2654902935028076, 0.2549501657485962, 0.22686557471752167, 0.2509428858757019, 0.2760978043079376, 0.2489224076271057, 0.22289197146892548, 0.22888603806495667, 0.25057247281074524, 0.23107488453388214, 0.2550175189971924, 0.2704404592514038, 0.22787581384181976, 0.24690194427967072, 0.20733432471752167, 0.2745487689971924, 0.2743467092514038, 0.2422548532485962, 0.23174838721752167, 0.2676118016242981, 0.26498517394065857, 0.28576239943504333, 0.24538658559322357, 0.28869208693504333, 0.2442753165960312, 0.2634024918079376, 0.20652613043785095, 0.26525458693504333, 0.24639682471752167, 0.23770877718925476, 0.24737338721752167, 0.2676118016242981, 0.2658943831920624, 0.25821658968925476, 0.2373046875, 0.3134092092514038, 0.2685546875, 0.2578461766242981, 0.27592942118644714, 0.26717403531074524, 0.25047144293785095, 0.24484778940677643, 0.24851831793785095, 0.25727370381355286, 0.2891298532485962, 0.2702384293079376, 0.2760641276836395, 0.24053744971752167, 0.2606748342514038, 0.2776468098163605, 0.27673760056495667, 0.2461947798728943, 0.2480805516242981, 0.23619341850280762, 0.2629983723163605, 0.2922615706920624, 0.2541419565677643, 0.2694975733757019, 0.2662985026836395, 0.21619072556495667, 0.2975821793079376, 0.2403690665960312, 0.23201778531074524, 0.2635034918785095, 0.28660425543785095, 0.23376885056495667, 0.27879175543785095, 0.24255791306495667, 0.2627626657485962, 0.2843480706214905, 0.2556573152542114, 0.22814519703388214, 0.2912513315677643, 0.24249057471752167, 0.24171605706214905, 0.2686893939971924, 0.25444504618644714, 0.2547817826271057, 0.2071322798728943, 0.2921605706214905, 0.2732691168785095, 0.2676118016242981, 0.2305697798728943, 0.2460600733757019, 0.25929418206214905, 0.2902074456214905, 0.23656384646892548, 0.2441069483757019, 0.27198949456214905, 0.25727370381355286, 0.2610115706920624, 0.2834388315677643, 0.24855199456214905, 0.23848329484462738, 0.28657057881355286, 0.2364628165960312, 0.26410964131355286, 0.21023033559322357, 0.2519194483757019, 0.2615840435028076, 0.28458377718925476, 0.2440395951271057, 0.22336341440677643, 0.2305697798728943, 0.2334657907485962, 0.2391567826271057, 0.2530980706214905, 0.2618534564971924, 0.2716527581214905, 0.23063711822032928, 0.24047009646892548, 0.2735048532485962, 0.26400861144065857, 0.2528623342514038, 0.2910829782485962, 0.2873450815677643, 0.2639412581920624, 0.23390355706214905, 0.21555091440677643, 0.26912716031074524, 0.2646821141242981, 0.2265288233757019, 0.23807920515537262, 0.23551993072032928, 0.22497978806495667, 0.22740435600280762, 0.2717874348163605, 0.26037177443504333, 0.2658607065677643, 0.3112540543079376, 0.2930361032485962, 0.2588900923728943, 0.20783944427967072, 0.2950565814971924, 0.23198410868644714, 0.23003098368644714, 0.24582435190677643, 0.26996901631355286, 0.22201643884181976, 0.3016231060028076, 0.2760978043079376, 0.2702047526836395, 0.26626482605934143, 0.2471039891242981, 0.2550848722457886, 0.2849541902542114, 0.25649920105934143, 0.23706896603107452, 0.2540746331214905, 0.2721578776836395, 0.2571389973163605, 0.2608432173728943, 0.2546134293079376, 0.21629175543785095, 0.2598329782485962, 0.26501885056495667, 0.2811826467514038, 0.23120959103107452, 0.2549838423728943, 0.2704741358757019, 0.2608432173728943, 0.2756600081920624, 0.24939385056495667, 0.2461947798728943, 0.24262526631355286, 0.28353986144065857, 0.25259295105934143, 0.29525861144065857, 0.29155442118644714, 0.22774110734462738, 0.2570716440677643, 0.28384295105934143, 0.21598868072032928, 0.19106949865818024, 0.26417699456214905, 0.2538725733757019, 0.23019935190677643, 0.2246767282485962, 0.2500336766242981, 0.26919451355934143, 0.2834051847457886, 0.24269261956214905, 0.2422548532485962, 0.23285964131355286, 0.2606411576271057, 0.22804418206214905, 0.2517847418785095, 0.27394261956214905, 0.2334657907485962, 0.2157529592514038, 0.26333513855934143, 0.2618534564971924, 0.2304350733757019, 0.24269261956214905, 0.2526603043079376, 0.22881869971752167, 0.2412109375, 0.2217807173728943, 0.2512459456920624, 0.2257206290960312, 0.2859644293785095, 0.2578461766242981, 0.26427802443504333, 0.24777747690677643, 0.2736732065677643, 0.2822939157485962, 0.23518319427967072, 0.2639412581920624, 0.29431572556495667, 0.2643453776836395, 0.23585668206214905, 0.2741446793079376, 0.24188442528247833, 0.2880859375, 0.26501885056495667, 0.26417699456214905, 0.2833378314971924, 0.2733027935028076, 0.27791622281074524, 0.26693829894065857, 0.2697669565677643, 0.27700701355934143, 0.24733971059322357, 0.2570043206214905, 0.2812163233757019, 0.23956088721752167, 0.24050377309322357, 0.2527613043785095, 0.28162041306495667, 0.2773100733757019, 0.2459927201271057, 0.2619544565677643, 0.2577451467514038, 0.23565463721752167, 0.24841728806495667, 0.24471309781074524, 0.2860654592514038, 0.25922682881355286, 0.2705078125, 0.20837822556495667, 0.28162041306495667, 0.24744072556495667, 0.23777613043785095, 0.23360048234462738, 0.2324555516242981, 0.21235182881355286, 0.26801589131355286, 0.2403690665960312, 0.2509765625, 0.2918238043785095, 0.27670392394065857, 0.24161502718925476, 0.2374393790960312, 0.23679956793785095, 0.2685883641242981, 0.24390490353107452, 0.25734105706214905, 0.2459927201271057, 0.25346848368644714, 0.22588901221752167, 0.2596309185028076, 0.22888603806495667, 0.22198276221752167, 0.27485182881355286, 0.2762324810028076, 0.24589170515537262, 0.2284482717514038, 0.2471039891242981, 0.2678811848163605, 0.2725282907485962, 0.2784550189971924, 0.2723935842514038, 0.265625, 0.2898706793785095, 0.25724002718925476, 0.24986529350280762, 0.2518184185028076, 0.2556573152542114, 0.22390221059322357, 0.27397629618644714, 0.21366514265537262, 0.2471039891242981, 0.25057247281074524, 0.24872036278247833, 0.24582435190677643, 0.2745150923728943, 0.24666622281074524, 0.24400591850280762, 0.26309940218925476, 0.2804418206214905, 0.22349810600280762, 0.2403017282485962, 0.22380118072032928, 0.24350081384181976, 0.26013603806495667, 0.26905980706214905, 0.2421201467514038, 0.21511314809322357, 0.2735048532485962, 0.21433863043785095, 0.2530980706214905, 0.26892510056495667, 0.23895473778247833, 0.2526266276836395, 0.2305024266242981, 0.27202317118644714, 0.25336745381355286, 0.27892646193504333, 0.23464439809322357, 0.2354189157485962, 0.2655576467514038, 0.2609442472457886, 0.24848464131355286, 0.21353043615818024, 0.22700026631355286, 0.3009833097457886, 0.25622978806495667, 0.2594625651836395, 0.26111260056495667, 0.24868668615818024, 0.2948881983757019, 0.2391567826271057, 0.30044451355934143, 0.24868668615818024, 0.27108028531074524, 0.25144800543785095, 0.26821795105934143, 0.28478583693504333, 0.22332973778247833, 0.2177060842514038, 0.24343346059322357, 0.23282596468925476, 0.24882139265537262, 0.2373720407485962, 0.2853583097457886, 0.27091190218925476, 0.24040274322032928, 0.2541756331920624, 0.2722925543785095, 0.2570043206214905, 0.2565328776836395, 0.27680495381355286, 0.28946658968925476, 0.31398168206214905, 0.2891298532485962, 0.24067214131355286, 0.2763671875, 0.318359375, 0.25141432881355286, 0.2695649266242981, 0.26508620381355286, 0.3222319483757019, 0.2899380326271057, 0.24154768884181976, 0.2255185842514038, 0.2500673532485962, 0.2996026277542114, 0.2685210108757019, 0.3043844401836395, 0.22686557471752167, 0.23898841440677643, 0.2628300189971924, 0.27889278531074524, 0.2519868016242981, 0.28377559781074524, 0.2333984375, 0.2579135298728943, 0.2725956439971924, 0.26902613043785095, 0.2688577473163605, 0.27680495381355286, 0.22925646603107452, 0.2742793560028076, 0.26811692118644714, 0.3180899918079376, 0.2675107717514038, 0.28455010056495667, 0.28677263855934143, 0.21696524322032928, 0.2677465081214905, 0.2879512310028076, 0.2625606060028076, 0.2590584456920624, 0.2754579782485962, 0.2451508641242981, 0.2880522608757019, 0.28279903531074524, 0.23713631927967072, 0.26424434781074524, 0.2782866358757019, 0.27283135056495667, 0.27195581793785095, 0.27885910868644714, 0.23208512365818024, 0.2530307173728943, 0.25464707612991333, 0.2599676847457886, 0.2571053206920624, 0.3113213777542114, 0.24727235734462738, 0.29138603806495667, 0.2743803858757019, 0.2882543206214905, 0.20703125, 0.30704471468925476, 0.22289197146892548, 0.20053206384181976, 0.28572872281074524, 0.2878838777542114, 0.29727908968925476, 0.2374393790960312, 0.2958647608757019, 0.24838362634181976, 0.28761449456214905, 0.3146551847457886, 0.23508216440677643, 0.23673221468925476, 0.22599002718925476, 0.25528690218925476, 0.2391567826271057, 0.24434266984462738, 0.2996699810028076, 0.2705078125, 0.2790948152542114, 0.2702384293079376, 0.2897360026836395, 0.22019800543785095, 0.2256196141242981, 0.27114763855934143, 0.29663926362991333, 0.2667025923728943, 0.3133418560028076, 0.2735048532485962, 0.2829000651836395, 0.2596309185028076, 0.22989627718925476, 0.2585196793079376, 0.28279903531074524, 0.26417699456214905, 0.2566675543785095, 0.29525861144065857, 0.2040678858757019, 0.2824959456920624, 0.2666015625, 0.2733364701271057, 0.2518857717514038, 0.2628636956214905, 0.29535964131355286, 0.23861800134181976, 0.2512459456920624, 0.25542160868644714, 0.27677127718925476, 0.2695649266242981, 0.2518857717514038, 0.25154903531074524, 0.255859375, 0.3074824810028076, 0.24050377309322357, 0.2912513315677643, 0.23578932881355286, 0.24434266984462738, 0.2675444483757019, 0.22440733015537262, 0.2766028940677643, 0.2547481060028076, 0.26171875, 0.24747440218925476, 0.2916891276836395, 0.2682853043079376, 0.21346309781074524, 0.2490234375, 0.21514682471752167, 0.2880522608757019, 0.2577451467514038, 0.23131060600280762, 0.24296201765537262, 0.25633081793785095, 0.24942752718925476, 0.2440732717514038, 0.20773841440677643, 0.2306034415960312, 0.2471713423728943, 0.2901737689971924, 0.25552263855934143, 0.2682853043079376, 0.2459927201271057, 0.2557246685028076, 0.21410290896892548, 0.27481815218925476, 0.2625606060028076, 0.2950229048728943, 0.24141298234462738, 0.24831627309322357, 0.24986529350280762, 0.2814857065677643, 0.27781519293785095, 0.2881196141242981, 0.2702384293079376, 0.29340651631355286, 0.3000740706920624, 0.27397629618644714, 0.24191810190677643, 0.23006466031074524, 0.2822265625, 0.27502021193504333, 0.2644800543785095, 0.29936692118644714, 0.25926050543785095, 0.24201913177967072, 0.2531653940677643, 0.23100754618644714, 0.2873114347457886, 0.22804418206214905, 0.2790948152542114, 0.26013603806495667, 0.2938779592514038, 0.2666689157485962, 0.23945985734462738, 0.2595635652542114, 0.2852236032485962, 0.2624932527542114, 0.2509428858757019, 0.28566136956214905, 0.2764345407485962, 0.2678475081920624, 0.24545393884181976, 0.28953394293785095, 0.22716863453388214, 0.27481815218925476, 0.29350754618644714, 0.2696322798728943, 0.30411502718925476, 0.2834388315677643, 0.24235586822032928, 0.27485182881355286, 0.3098060190677643, 0.2832704782485962, 0.2842470407485962, 0.23848329484462738, 0.3017914891242981, 0.2490907907485962, 0.22588901221752167, 0.3009159564971924, 0.22801050543785095, 0.24390490353107452, 0.29037579894065857, 0.2781519293785095, 0.3049232065677643, 0.31869611144065857, 0.2804418206214905, 0.29835668206214905, 0.2491244673728943, 0.23875269293785095, 0.29360857605934143, 0.24454471468925476, 0.2542093098163605, 0.2936422526836395, 0.3065059185028076, 0.29832300543785095, 0.26714035868644714, 0.24461206793785095, 0.3147561848163605, 0.29337283968925476, 0.28963497281074524, 0.29761582612991333, 0.2540072798728943, 0.26148301362991333, 0.29370957612991333, 0.2481479048728943, 0.30532732605934143, 0.28087958693504333, 0.2859307527542114, 0.2887931168079376, 0.25, 0.27222520112991333, 0.26895877718925476, 0.2647157907485962, 0.2782529592514038, 0.22730334103107452, 0.2576104402542114, 0.24292834103107452, 0.2913186848163605, 0.27882543206214905, 0.2834725081920624, 0.30509158968925476, 0.2599676847457886, 0.25660020112991333, 0.25057247281074524, 0.24006600677967072, 0.2704067826271057, 0.2639749348163605, 0.26225754618644714, 0.2674434185028076, 0.2402680516242981, 0.23181572556495667, 0.2941473722457886, 0.2794652581214905, 0.26791486144065857, 0.24727235734462738, 0.2265961766242981, 0.2977168560028076, 0.2850215435028076, 0.255859375, 0.2871767282485962, 0.27865704894065857, 0.2526603043079376, 0.2594625651836395, 0.2607758641242981, 0.2726629972457886, 0.2715854048728943, 0.24296201765537262, 0.3261045217514038, 0.30623653531074524, 0.2551185190677643, 0.23164735734462738, 0.2560614347457886, 0.3073141276836395, 0.2841460108757019, 0.23690059781074524, 0.21467538177967072, 0.2600686848163605, 0.3086274266242981, 0.2589911222457886, 0.2907125651836395, 0.19979122281074524, 0.2649178206920624, 0.2590247690677643, 0.2761988043785095, 0.2441069483757019, 0.2872777581214905, 0.28360721468925476, 0.27791622281074524, 0.2274380326271057, 0.25912579894065857, 0.2985250651836395, 0.30418238043785095, 0.25626346468925476, 0.29428204894065857, 0.2508418560028076, 0.23568831384181976, 0.2840786576271057, 0.2715517282485962, 0.2627289891242981, 0.3000403940677643, 0.29158809781074524, 0.2971780598163605, 0.3133418560028076, 0.3095366358757019, 0.29748114943504333, 0.2286166548728943, 0.2795325815677643, 0.3241177201271057, 0.26889142394065857, 0.2546134293079376, 0.3056977391242981, 0.22248788177967072, 0.29040947556495667, 0.2594625651836395, 0.32186153531074524, 0.2362270951271057, 0.2741446793079376, 0.3044854402542114, 0.23302800953388214, 0.24841728806495667, 0.2723599076271057, 0.2508418560028076, 0.22733701765537262, 0.2980536222457886, 0.26134833693504333, 0.3157327473163605, 0.26016971468925476, 0.2586880326271057, 0.2501683831214905, 0.23696793615818024, 0.29724541306495667, 0.27283135056495667, 0.3095703125, 0.2374393790960312, 0.2546134293079376, 0.26205548644065857, 0.2959321141242981, 0.27794989943504333, 0.2128232717514038, 0.27222520112991333, 0.2823949456214905, 0.2903421223163605, 0.24555495381355286, 0.2669046223163605, 0.28859105706214905, 0.30606815218925476, 0.27582839131355286, 0.32283809781074524, 0.28276535868644714, 0.2491581290960312, 0.2804081439971924, 0.2657933831214905, 0.23467807471752167, 0.2727639973163605, 0.24494881927967072, 0.24181707203388214, 0.3190328776836395, 0.2527613043785095, 0.24562230706214905, 0.2782866358757019, 0.32778826355934143, 0.2696322798728943, 0.2909819483757019, 0.29067888855934143, 0.26724138855934143, 0.28367456793785095, 0.2921605706214905, 0.2942483723163605, 0.2755926847457886, 0.28003770112991333, 0.23767510056495667, 0.26515355706214905, 0.27185478806495667, 0.2688240706920624, 0.23400457203388214, 0.2937432527542114, 0.2589237689971924, 0.2812836766242981, 0.2723262310028076, 0.2734038233757019, 0.26993533968925476, 0.29923221468925476, 0.23100754618644714, 0.2754916548728943, 0.2793305516242981, 0.25434401631355286, 0.2509765625, 0.29828932881355286, 0.24178341031074524, 0.2665005326271057, 0.27320176362991333, 0.2840449810028076, 0.22716863453388214, 0.27865704894065857, 0.2460263967514038, 0.2918238043785095, 0.2742456793785095, 0.2373720407485962, 0.2731344401836395, 0.22346444427967072, 0.30525997281074524, 0.26505252718925476, 0.23962822556495667, 0.2824286222457886, 0.2844153940677643, 0.25734105706214905, 0.2735385298728943, 0.29744747281074524, 0.2765692472457886, 0.23511584103107452, 0.2683863043785095, 0.2547144293785095, 0.25835129618644714, 0.24148033559322357, 0.2761651277542114, 0.2526603043079376, 0.2568359375, 0.24942752718925476, 0.25828394293785095, 0.2568022608757019, 0.26131466031074524, 0.2955953776836395, 0.2909482717514038, 0.2571389973163605, 0.3145878314971924, 0.23164735734462738, 0.26212283968925476, 0.23962822556495667, 0.30044451355934143, 0.2421875, 0.2528960108757019, 0.2938779592514038, 0.32075026631355286, 0.2789938151836395, 0.26501885056495667, 0.26895877718925476, 0.29721173644065857, 0.24235586822032928, 0.2926993668079376, 0.29135236144065857, 0.24333243072032928, 0.25434401631355286, 0.2570379972457886, 0.3328057527542114, 0.2858297526836395, 0.28296738862991333, 0.3180563151836395, 0.2889277935028076, 0.2570716440677643, 0.3078192472457886, 0.2989291548728943, 0.3045191168785095, 0.2531653940677643, 0.2626279592514038, 0.2704404592514038, 0.2595972418785095, 0.2508418560028076, 0.3056303858757019, 0.3175175189971924, 0.3146215081214905, 0.2668709456920624, 0.2947871685028076, 0.2715854048728943, 0.2510439157485962, 0.2657597064971924, 0.2530643939971924, 0.2784550189971924, 0.25643184781074524, 0.2799703776836395, 0.28377559781074524, 0.2196255326271057, 0.25660020112991333, 0.25232353806495667, 0.28576239943504333, 0.29141971468925476, 0.23312903940677643, 0.2619208097457886, 0.2773774266242981, 0.29253098368644714, 0.2918238043785095, 0.3312903940677643, 0.23376885056495667, 0.27596309781074524, 0.26693829894065857, 0.2666352391242981, 0.2508418560028076, 0.26501885056495667, 0.26114627718925476, 0.25141432881355286, 0.2795325815677643, 0.3145204782485962, 0.23777613043785095, 0.22888603806495667, 0.24467942118644714, 0.2500336766242981, 0.27970096468925476, 0.33667832612991333, 0.27478447556495667, 0.24050377309322357, 0.25249192118644714, 0.29828932881355286, 0.24744072556495667, 0.2891635298728943, 0.2507745027542114, 0.2430630326271057, 0.3107825815677643, 0.30111798644065857, 0.2666015625, 0.3377222418785095, 0.2547144293785095, 0.2956290543079376, 0.24343346059322357, 0.2852572798728943, 0.30613550543785095, 0.3073478043079376, 0.27976831793785095, 0.29943427443504333, 0.2883553206920624, 0.30630388855934143, 0.2880522608757019, 0.29259833693504333, 0.2889951467514038, 0.2844827473163605, 0.24168238043785095, 0.2393588423728943, 0.28353986144065857, 0.28269800543785095, 0.2578125, 0.27592942118644714, 0.31714707612991333, 0.28158673644065857, 0.25269395112991333, 0.26811692118644714, 0.28842267394065857, 0.28566136956214905, 0.2901400923728943, 0.28960129618644714, 0.32277074456214905, 0.27875807881355286]","[10.875, 9.5625, 9.3125, 9.4375, 9.1875, 9.25, 9.5, 9.5, 9.6875, 9.4375, 9.1875, 9.5, 9.5, 9.4375, 9.5, 9.5625, 9.6875, 9.75, 9.3125, 9.4375, 9.4375, 9.5, 9.5, 9.5, 9.625, 9.5625, 9.4375, 9.5, 9.75, 9.8125, 9.8125, 9.625, 9.5625, 9.5625, 9.5625, 9.75, 9.875, 9.8125, 9.625, 9.625, 9.5625, 9.625, 9.75, 9.4375, 9.5625, 9.625, 10.0625, 10.4375, 10.0, 10.125, 9.9375, 9.8125, 9.75, 9.75, 10.0625, 10.0, 9.9375, 10.0, 9.9375, 10.375, 10.3125, 10.0, 10.75, 9.8125, 9.625, 9.5, 9.5, 9.6875, 10.0, 9.8125, 9.8125, 9.875, 10.125, 10.0, 10.0625, 10.0, 10.0625, 10.1875, 10.0625, 10.25, 10.4375, 10.375, 10.375, 10.75, 10.5, 10.4375, 10.375, 10.5625, 10.625, 10.0, 10.6875, 10.5625, 10.4375, 10.5, 10.375, 10.5625, 10.6875, 11.0625, 10.375, 10.625, 10.6875, 11.0, 10.6875, 10.5, 10.0625, 10.4375, 10.75, 10.4375, 10.5625, 10.625, 11.0625, 10.8125, 10.5625, 11.125, 10.5625, 11.125, 10.5, 10.75, 10.4375, 10.625, 11.125, 10.75, 10.5625, 10.5, 10.5, 10.5, 10.625, 10.625, 10.5, 9.9375, 10.1875, 10.625, 10.25, 10.1875, 10.25, 10.5625, 10.6875, 10.875, 10.75, 10.875, 10.75, 10.375, 10.9375, 10.5, 10.375, 10.875, 10.25, 10.875, 10.125, 10.5625, 10.875, 10.625, 10.625, 10.5625, 10.5625, 10.125, 11.0, 11.4375, 10.375, 10.5, 10.5625, 10.5625, 10.5625, 10.625, 11.625, 10.6875, 10.875, 10.9375, 11.125, 10.6875, 10.5, 10.5625, 11.1875, 10.625, 10.6875, 10.75, 11.125, 10.5625, 10.8125, 10.1875, 10.9375, 10.1875, 10.0625, 10.375, 10.3125, 10.375, 10.625, 10.5625, 10.25, 10.125, 10.125, 10.5, 10.75, 10.3125, 10.5, 10.4375, 10.0625, 10.1875, 10.625, 10.5, 10.3125, 10.5, 10.8125, 10.5625, 10.5, 10.8125, 10.75, 10.625, 10.5625, 10.625, 10.375, 10.625, 10.75, 10.4375, 10.625, 10.1875, 10.4375, 10.1875, 10.1875, 10.3125, 10.1875, 10.375, 10.125, 10.375, 10.25, 10.5625, 10.4375, 10.5, 10.25, 10.25, 10.6875, 10.375, 10.6875, 10.125, 9.875, 9.625, 9.625, 9.6875, 9.5, 9.875, 10.4375, 10.0, 10.125, 10.3125, 10.4375, 10.0, 10.125, 9.875, 10.125, 10.25, 10.25, 10.0, 10.5625, 10.375, 10.3125, 10.1875, 10.0, 9.9375, 10.25, 10.1875, 10.25, 10.25, 10.3125, 10.25, 10.375, 10.1875, 10.4375, 10.1875, 10.4375, 10.25, 10.3125, 10.4375, 10.25, 10.1875, 10.4375, 9.9375, 10.0625, 10.6875, 10.6875, 10.1875, 9.875, 10.5625, 10.375, 10.375, 10.25, 10.25, 10.25, 10.0, 10.1875, 10.0, 10.1875, 10.25, 10.0625, 10.375, 10.1875, 10.25, 10.375, 10.0625, 10.1875, 10.0625, 10.75, 10.6875, 10.1875, 10.4375, 10.0625, 10.0, 9.875, 10.25, 10.0, 9.9375, 10.0625, 10.1875, 10.375, 10.25, 10.0625, 10.0625, 10.1875, 10.3125, 10.375, 10.125, 10.375, 10.0, 10.625, 10.375, 10.75, 10.5, 10.375, 10.125, 10.625, 10.5, 10.4375, 10.4375, 10.375, 10.5625, 10.5, 10.5, 10.1875, 10.75, 9.9375, 10.5, 10.125, 10.25, 10.1875, 10.25, 10.3125, 10.4375, 10.375, 10.625, 10.625, 9.9375, 10.125, 10.1875, 10.625, 10.5, 10.5, 10.5, 11.4375, 11.6875, 12.75, 11.25, 12.3125, 12.1875, 11.9375, 11.9375, 11.8125, 11.875, 11.75, 11.875, 11.4375, 11.3125, 11.9375, 11.5625, 12.25, 12.375, 10.9375, 12.0625, 11.625, 11.5, 11.375, 10.8125, 10.5, 10.5, 10.375, 10.5, 10.75, 10.6875, 10.9375, 10.6875, 10.4375, 10.125, 10.25, 10.75, 10.875, 10.6875, 10.6875, 10.625, 10.4375, 11.25, 10.6875, 11.0625, 11.125, 11.0625, 10.4375, 10.5, 10.6875, 10.9375, 11.1875, 11.0, 11.1875, 10.75, 11.875, 11.0625, 11.25, 11.25, 10.8125, 11.0, 10.75, 11.3125, 11.3125, 12.5625, 11.625, 11.5625, 11.0625, 11.625, 11.4375, 11.125, 11.0625, 11.0625, 11.1875, 12.625, 11.4375, 11.1875, 11.9375, 11.8125, 11.8125, 12.3125, 12.375, 11.75, 11.25, 11.8125, 11.5625, 11.9375, 11.8125, 11.3125, 10.625, 11.25, 10.9375, 12.75, 11.6875, 11.125, 11.6875, 11.125, 11.1875, 11.3125, 10.9375, 10.625, 12.0625, 10.9375, 10.0625, 10.125, 10.4375, 10.4375, 10.875, 11.0, 10.625, 10.75, 11.1875, 11.0, 10.625, 11.0625, 11.1875, 11.4375, 12.0625, 11.8125, 11.5, 10.9375, 10.625, 11.8125, 11.125, 11.875, 11.625, 11.5, 11.1875, 10.5, 10.9375, 11.0625, 11.1875, 10.625, 10.5, 10.5625, 10.5, 11.0, 11.75, 11.1875, 10.875, 10.9375, 10.25, 10.25, 10.75, 11.4375, 10.3125, 10.5625, 10.25, 10.875, 11.1875, 10.9375, 10.75, 11.125, 11.1875, 11.6875, 11.1875, 11.4375, 10.5, 11.1875, 10.375, 11.75, 11.125, 11.25, 11.125, 11.4375, 11.25, 11.125, 11.3125, 11.9375, 11.3125, 11.1875, 11.4375, 11.4375, 11.0625, 10.9375, 10.875, 11.3125, 11.5625, 10.5, 10.3125, 10.0625, 10.375, 11.0625, 10.875, 10.75, 11.25, 10.6875, 11.0, 11.3125, 11.125, 11.25, 10.9375, 10.5, 11.375, 10.5, 11.125, 11.4375, 11.4375, 10.75, 10.875, 10.4375, 11.0, 11.125, 10.8125, 10.5, 10.5, 10.5625, 10.25, 10.875, 10.6875, 10.6875, 9.875, 10.625, 11.0, 10.625, 10.1875, 10.5625, 10.1875, 10.625, 10.125, 10.125, 10.0625, 10.125, 10.125, 10.625, 10.5625, 10.5625, 10.9375, 10.625, 11.125, 10.5, 10.875, 10.8125, 11.0625, 10.6875, 10.0, 10.3125, 10.9375, 11.0, 11.0625, 11.3125, 10.8125, 10.6875, 10.6875, 10.9375, 10.9375, 10.8125, 10.8125, 11.0, 11.0625, 11.1875, 10.6875, 11.1875, 10.625, 10.625, 10.6875, 11.0, 10.4375, 10.625, 10.5625, 10.625, 10.75, 11.125, 11.125, 10.75, 10.4375, 11.3125, 10.75, 10.6875, 10.8125, 10.8125, 10.5, 11.0625, 10.875, 11.3125, 10.875, 10.875, 10.75, 11.4375, 10.9375, 10.75, 11.125, 11.0625, 11.0625, 10.75, 10.5625, 10.4375, 11.1875, 11.25, 11.1875, 10.8125, 10.5625, 11.1875, 11.25, 11.0, 10.9375, 10.9375, 10.875, 11.3125, 10.5625, 11.0625, 11.0625, 10.3125, 10.8125, 11.0625, 10.8125, 10.375, 10.875, 10.8125, 10.8125, 10.4375, 10.75, 10.75, 11.4375, 10.8125, 11.1875, 10.75, 11.125, 10.75, 10.6875, 11.1875, 11.1875, 10.625, 11.125, 11.4375, 11.25, 11.3125, 11.0, 10.75, 11.25, 10.8125, 11.0, 11.4375, 12.125, 11.4375, 11.625, 11.5625, 12.125, 11.25, 11.125, 11.0, 11.625, 11.375, 11.1875, 11.9375, 11.5625, 11.4375, 11.1875, 11.5625, 11.5, 11.625, 11.75, 11.3125, 11.3125, 11.0625, 10.875, 11.5625, 11.5625, 11.0, 11.0625, 11.0625, 11.1875, 11.1875, 11.375, 11.375, 11.375, 11.4375, 11.25, 12.4375, 12.25, 11.9375, 12.0625, 11.0625, 12.1875, 11.875, 11.4375, 11.25, 11.1875, 11.0625, 12.0, 10.6875, 11.125, 11.875, 11.875, 10.875, 10.6875, 10.6875, 11.3125, 11.125, 11.125, 11.0, 11.125, 10.875, 10.875, 10.6875, 10.5, 11.0625, 11.1875, 11.25, 10.75, 11.0, 11.125, 11.3125, 11.0, 11.1875, 11.0, 11.125, 10.8125, 11.0, 10.9375, 10.625, 10.3125, 11.625, 11.1875, 10.9375, 10.5625, 10.9375, 11.0625, 11.375, 11.0625, 10.5625, 11.0625, 11.625, 11.0, 10.75, 10.75, 10.875, 11.375, 11.375, 10.8125, 10.5, 11.3125, 10.75, 11.3125, 11.25, 10.75, 11.1875, 10.8125, 10.875, 10.875, 11.4375, 10.875, 11.4375, 11.625, 11.5, 11.3125, 11.0, 10.5625, 11.3125, 10.8125, 11.1875, 10.875, 11.1875, 11.8125, 10.8125, 12.0, 11.375, 11.0, 10.75, 11.0, 11.0, 10.4375, 10.4375, 10.875, 10.9375, 11.0625, 10.8125, 11.6875, 11.0625, 11.0625, 10.4375, 10.875, 10.6875, 11.0, 11.5625, 11.6875, 12.125, 11.875, 10.375, 9.8125, 10.0, 10.0625, 10.0625, 10.25, 10.5, 10.125, 9.875, 10.125, 10.25, 10.5, 10.75, 10.3125, 10.0, 9.8125, 10.3125, 10.5, 10.25, 10.625, 10.4375, 10.3125, 10.4375, 11.1875, 11.1875, 11.25, 10.625, 10.6875, 10.75, 11.0, 11.0625, 11.0, 10.625, 10.25, 10.9375, 10.6875, 10.8125, 10.6875, 10.75, 11.0, 11.4375, 11.0625, 10.4375, 10.8125, 10.9375, 11.125, 11.4375, 10.9375, 11.0, 11.0625, 10.625, 11.0, 11.125, 11.25, 10.625, 11.0, 11.0625, 11.125, 10.625, 11.3125, 10.75, 10.625, 11.4375, 11.3125, 11.375, 10.875, 11.5625, 11.3125, 10.625, 11.125, 10.1875, 10.875, 10.9375, 11.0, 11.1875, 11.0625, 11.4375, 11.1875, 11.0625, 11.0, 11.4375, 11.3125, 11.0, 11.0625, 11.5625, 11.4375, 12.0, 12.0625, 10.9375, 11.0, 10.625, 10.625, 10.9375, 10.9375, 10.6875, 11.25, 10.4375, 10.8125, 10.875, 10.75, 10.875, 11.0, 11.125, 10.375, 10.625, 10.8125, 11.4375, 11.3125, 11.3125, 10.875, 12.1875, 12.25, 10.4375, 10.6875, 10.375, 10.9375, 11.0, 10.1875, 10.9375, 10.5, 10.5, 10.75, 11.3125, 10.9375, 10.875, 11.1875, 11.1875, 11.25, 11.0625, 10.625, 10.75, 10.875, 10.5625, 10.8125, 10.6875, 10.75, 10.8125, 11.375, 10.25, 10.8125, 10.75, 11.0625, 10.875, 11.0625, 10.875, 11.125, 10.4375, 10.875, 10.75, 11.0, 11.3125, 11.625, 10.875, 11.3125, 11.6875, 11.1875, 10.875, 10.9375, 11.5, 11.0, 10.875, 11.5, 10.75, 10.875, 11.375, 11.1875, 11.5, 11.375, 11.5625, 11.0, 11.1875, 11.0625, 10.9375, 11.3125, 11.75, 11.4375, 11.125, 11.5625, 11.4375, 11.5, 11.5625, 12.125, 11.375, 12.0625, 11.8125, 11.25, 11.8125, 11.375, 11.0625, 11.3125, 11.5, 10.9375, 11.125, 11.5625, 11.25, 11.1875, 10.875, 11.1875, 10.5625, 10.8125, 10.8125, 11.125, 11.375, 11.6875, 11.125, 11.4375, 10.5625, 10.6875, 11.375, 11.0625, 11.3125, 11.625, 11.8125, 11.5625, 11.375, 10.8125, 11.5, 11.25, 11.25, 11.0, 10.9375, 10.6875, 11.0, 10.6875, 11.25, 11.0625, 10.75, 10.75, 10.875, 10.9375, 11.0, 10.75, 10.875, 10.8125, 10.5, 11.0625, 10.875, 11.0, 10.6875, 10.875, 10.4375, 10.5625, 10.625, 10.4375, 11.0625, 10.625, 10.6875, 10.875, 11.1875, 10.6875, 11.0, 10.9375, 10.75, 10.5625, 10.875, 11.1875, 10.875, 10.875, 12.0, 12.4375, 12.0625, 11.4375, 11.625, 11.375, 11.625, 11.0625, 11.6875, 11.5625, 11.125, 10.4375, 10.6875, 11.25, 11.375, 11.0625, 10.875, 11.625, 11.9375, 11.375, 11.8125, 10.8125, 12.125, 11.4375, 11.5, 11.4375, 11.125, 11.375, 11.1875, 10.75, 11.25, 11.75, 11.9375, 11.375, 11.9375, 11.75, 10.875, 12.1875, 11.875, 11.4375, 11.875, 11.5625, 11.4375, 11.4375, 12.0625, 11.625, 11.25, 11.6875, 12.1875, 11.5, 10.9375, 11.75, 11.25, 11.5625, 11.1875, 11.625, 11.375, 11.4375, 11.1875, 10.5, 11.125, 11.125, 10.9375, 10.6875, 11.375, 11.4375, 11.8125, 11.25, 11.3125, 11.5625, 10.6875, 11.0625, 11.0, 11.25, 11.375, 11.125, 11.375, 11.8125, 10.8125, 10.1875, 10.625, 10.625, 10.5, 10.4375, 10.75, 10.8125, 10.9375, 10.75, 11.0625, 10.6875, 10.5625, 10.75, 10.6875, 10.625, 11.125, 10.625, 10.25, 10.6875, 10.5625, 10.6875, 11.0, 11.0, 10.875, 11.1875, 11.125, 10.75, 11.0, 11.0625, 11.0, 10.75, 10.6875, 10.625, 10.6875, 10.9375, 11.0, 10.875, 11.375, 10.5625, 10.875, 10.75, 11.1875, 11.0625, 11.1875, 10.5, 11.125, 11.0625, 11.125, 11.125, 11.5625, 11.25, 11.1875, 11.25, 11.4375, 11.0, 11.8125, 10.75, 11.3125, 10.8125, 10.9375, 11.625, 10.875, 11.5, 10.9375, 10.875, 10.9375, 11.0625, 11.125, 11.6875, 11.5625, 11.25, 10.75, 11.0625, 10.6875, 11.125, 10.875, 10.9375, 10.8125, 10.875, 11.3125, 11.125, 11.0, 10.8125, 11.0625, 11.125, 11.0, 11.3125, 10.5625, 10.75, 10.3125, 11.4375, 10.75, 10.4375, 11.1875, 11.125, 10.875, 10.6875, 11.125, 12.0625, 11.0, 11.0, 11.1875, 10.75, 10.75, 11.0625, 11.4375, 11.125, 11.1875, 11.25, 10.8125, 10.5, 10.5625, 10.75, 10.6875, 10.4375, 10.5625, 10.6875, 10.25, 10.125, 10.625, 10.8125, 10.8125, 10.6875, 10.8125, 10.875, 10.75, 10.3125, 10.1875, 10.3125, 10.5, 10.3125, 10.4375, 10.0, 10.4375, 10.1875, 10.5625, 10.5625, 10.375, 10.5, 10.6875, 11.0, 10.75, 10.75, 10.3125, 10.375, 10.9375, 10.5, 10.5625, 10.9375, 10.375, 10.4375, 10.75, 11.125, 10.375, 10.8125, 10.6875, 10.75, 11.3125, 11.625, 11.25, 10.9375, 11.125, 11.3125, 10.8125, 10.9375, 10.6875, 10.6875, 10.8125, 10.875, 10.625, 11.0625, 10.6875, 10.875, 10.375, 10.75, 11.0625, 10.75, 10.625, 10.75, 10.5625, 10.6875, 10.4375, 10.625, 10.5625, 10.6875, 10.4375, 10.25, 10.25, 10.375, 10.4375, 10.25, 10.5625, 10.4375, 10.375, 10.4375, 10.5625, 10.5625, 10.375, 10.375, 10.3125, 10.625]","[52992.0, 14272.0, 11072.0, 12544.0, 9792.0, 10432.0, 13376.0, 13376.0, 16128.0, 12544.0, 9792.0, 13376.0, 13376.0, 12544.0, 13376.0, 14272.0, 16128.0, 17152.0, 11072.0, 12544.0, 12544.0, 13376.0, 13376.0, 13376.0, 15168.0, 14272.0, 12544.0, 13376.0, 17152.0, 18304.0, 18304.0, 15168.0, 14272.0, 14272.0, 14272.0, 17152.0, 19456.0, 18304.0, 15168.0, 15168.0, 14272.0, 15168.0, 17152.0, 12544.0, 14272.0, 15168.0, 23424.0, 34304.0, 22016.0, 24960.0, 20736.0, 18304.0, 17152.0, 17152.0, 23424.0, 22016.0, 20736.0, 22016.0, 20736.0, 32128.0, 30208.0, 22016.0, 46592.0, 18304.0, 15168.0, 13376.0, 13376.0, 16128.0, 22016.0, 18304.0, 18304.0, 19456.0, 24960.0, 22016.0, 23424.0, 22016.0, 23424.0, 26624.0, 23424.0, 28288.0, 34304.0, 32128.0, 32128.0, 46592.0, 36352.0, 34304.0, 32128.0, 38656.0, 41216.0, 22016.0, 43776.0, 38656.0, 34304.0, 36352.0, 32128.0, 38656.0, 43776.0, 63744.0, 32128.0, 41216.0, 43776.0, 59904.0, 43776.0, 36352.0, 23424.0, 34304.0, 46592.0, 34304.0, 38656.0, 41216.0, 63744.0, 49664.0, 38656.0, 68096.0, 38656.0, 68096.0, 36352.0, 46592.0, 34304.0, 41216.0, 68096.0, 46592.0, 38656.0, 36352.0, 36352.0, 36352.0, 41216.0, 41216.0, 36352.0, 20736.0, 26624.0, 41216.0, 28288.0, 26624.0, 28288.0, 38656.0, 43776.0, 52992.0, 46592.0, 52992.0, 46592.0, 32128.0, 56320.0, 36352.0, 32128.0, 52992.0, 28288.0, 52992.0, 24960.0, 38656.0, 52992.0, 41216.0, 41216.0, 38656.0, 38656.0, 24960.0, 59904.0, 92672.0, 32128.0, 36352.0, 38656.0, 38656.0, 38656.0, 41216.0, 112128.0, 43776.0, 52992.0, 56320.0, 68096.0, 43776.0, 36352.0, 38656.0, 72192.0, 41216.0, 43776.0, 46592.0, 68096.0, 38656.0, 49664.0, 26624.0, 56320.0, 26624.0, 23424.0, 32128.0, 30208.0, 32128.0, 41216.0, 38656.0, 28288.0, 24960.0, 24960.0, 36352.0, 46592.0, 30208.0, 36352.0, 34304.0, 23424.0, 26624.0, 41216.0, 36352.0, 30208.0, 36352.0, 49664.0, 38656.0, 36352.0, 49664.0, 46592.0, 41216.0, 38656.0, 41216.0, 32128.0, 41216.0, 46592.0, 34304.0, 41216.0, 26624.0, 34304.0, 26624.0, 26624.0, 30208.0, 26624.0, 32128.0, 24960.0, 32128.0, 28288.0, 38656.0, 34304.0, 36352.0, 28288.0, 28288.0, 43776.0, 32128.0, 43776.0, 24960.0, 19456.0, 15168.0, 15168.0, 16128.0, 13376.0, 19456.0, 34304.0, 22016.0, 24960.0, 30208.0, 34304.0, 22016.0, 24960.0, 19456.0, 24960.0, 28288.0, 28288.0, 22016.0, 38656.0, 32128.0, 30208.0, 26624.0, 22016.0, 20736.0, 28288.0, 26624.0, 28288.0, 28288.0, 30208.0, 28288.0, 32128.0, 26624.0, 34304.0, 26624.0, 34304.0, 28288.0, 30208.0, 34304.0, 28288.0, 26624.0, 34304.0, 20736.0, 23424.0, 43776.0, 43776.0, 26624.0, 19456.0, 38656.0, 32128.0, 32128.0, 28288.0, 28288.0, 28288.0, 22016.0, 26624.0, 22016.0, 26624.0, 28288.0, 23424.0, 32128.0, 26624.0, 28288.0, 32128.0, 23424.0, 26624.0, 23424.0, 46592.0, 43776.0, 26624.0, 34304.0, 23424.0, 22016.0, 19456.0, 28288.0, 22016.0, 20736.0, 23424.0, 26624.0, 32128.0, 28288.0, 23424.0, 23424.0, 26624.0, 30208.0, 32128.0, 24960.0, 32128.0, 22016.0, 41216.0, 32128.0, 46592.0, 36352.0, 32128.0, 24960.0, 41216.0, 36352.0, 34304.0, 34304.0, 32128.0, 38656.0, 36352.0, 36352.0, 26624.0, 46592.0, 20736.0, 36352.0, 24960.0, 28288.0, 26624.0, 28288.0, 30208.0, 34304.0, 32128.0, 41216.0, 41216.0, 20736.0, 24960.0, 26624.0, 41216.0, 36352.0, 36352.0, 36352.0, 92672.0, 119296.0, 346112.0, 76800.0, 223232.0, 196608.0, 153600.0, 153600.0, 135168.0, 144384.0, 126976.0, 144384.0, 92672.0, 81920.0, 153600.0, 105472.0, 209920.0, 237568.0, 56320.0, 174080.0, 112128.0, 98816.0, 87040.0, 49664.0, 36352.0, 36352.0, 32128.0, 36352.0, 46592.0, 43776.0, 56320.0, 43776.0, 34304.0, 24960.0, 28288.0, 46592.0, 52992.0, 43776.0, 43776.0, 41216.0, 34304.0, 76800.0, 43776.0, 63744.0, 68096.0, 63744.0, 34304.0, 36352.0, 43776.0, 56320.0, 72192.0, 59904.0, 72192.0, 46592.0, 144384.0, 63744.0, 76800.0, 76800.0, 49664.0, 59904.0, 46592.0, 81920.0, 81920.0, 286720.0, 112128.0, 105472.0, 63744.0, 112128.0, 92672.0, 68096.0, 63744.0, 63744.0, 72192.0, 305152.0, 92672.0, 72192.0, 153600.0, 135168.0, 135168.0, 223232.0, 237568.0, 126976.0, 76800.0, 135168.0, 105472.0, 153600.0, 135168.0, 81920.0, 41216.0, 76800.0, 56320.0, 346112.0, 119296.0, 68096.0, 119296.0, 68096.0, 72192.0, 81920.0, 56320.0, 41216.0, 174080.0, 56320.0, 23424.0, 24960.0, 34304.0, 34304.0, 52992.0, 59904.0, 41216.0, 46592.0, 72192.0, 59904.0, 41216.0, 63744.0, 72192.0, 92672.0, 174080.0, 135168.0, 98816.0, 56320.0, 41216.0, 135168.0, 68096.0, 144384.0, 112128.0, 98816.0, 72192.0, 36352.0, 56320.0, 63744.0, 72192.0, 41216.0, 36352.0, 38656.0, 36352.0, 59904.0, 126976.0, 72192.0, 52992.0, 56320.0, 28288.0, 28288.0, 46592.0, 92672.0, 30208.0, 38656.0, 28288.0, 52992.0, 72192.0, 56320.0, 46592.0, 68096.0, 72192.0, 119296.0, 72192.0, 92672.0, 36352.0, 72192.0, 32128.0, 126976.0, 68096.0, 76800.0, 68096.0, 92672.0, 76800.0, 68096.0, 81920.0, 153600.0, 81920.0, 72192.0, 92672.0, 92672.0, 63744.0, 56320.0, 52992.0, 81920.0, 105472.0, 36352.0, 30208.0, 23424.0, 32128.0, 63744.0, 52992.0, 46592.0, 76800.0, 43776.0, 59904.0, 81920.0, 68096.0, 76800.0, 56320.0, 36352.0, 87040.0, 36352.0, 68096.0, 92672.0, 92672.0, 46592.0, 52992.0, 34304.0, 59904.0, 68096.0, 49664.0, 36352.0, 36352.0, 38656.0, 28288.0, 52992.0, 43776.0, 43776.0, 19456.0, 41216.0, 59904.0, 41216.0, 26624.0, 38656.0, 26624.0, 41216.0, 24960.0, 24960.0, 23424.0, 24960.0, 24960.0, 41216.0, 38656.0, 38656.0, 56320.0, 41216.0, 68096.0, 36352.0, 52992.0, 49664.0, 63744.0, 43776.0, 22016.0, 30208.0, 56320.0, 59904.0, 63744.0, 81920.0, 49664.0, 43776.0, 43776.0, 56320.0, 56320.0, 49664.0, 49664.0, 59904.0, 63744.0, 72192.0, 43776.0, 72192.0, 41216.0, 41216.0, 43776.0, 59904.0, 34304.0, 41216.0, 38656.0, 41216.0, 46592.0, 68096.0, 68096.0, 46592.0, 34304.0, 81920.0, 46592.0, 43776.0, 49664.0, 49664.0, 36352.0, 63744.0, 52992.0, 81920.0, 52992.0, 52992.0, 46592.0, 92672.0, 56320.0, 46592.0, 68096.0, 63744.0, 63744.0, 46592.0, 38656.0, 34304.0, 72192.0, 76800.0, 72192.0, 49664.0, 38656.0, 72192.0, 76800.0, 59904.0, 56320.0, 56320.0, 52992.0, 81920.0, 38656.0, 63744.0, 63744.0, 30208.0, 49664.0, 63744.0, 49664.0, 32128.0, 52992.0, 49664.0, 49664.0, 34304.0, 46592.0, 46592.0, 92672.0, 49664.0, 72192.0, 46592.0, 68096.0, 46592.0, 43776.0, 72192.0, 72192.0, 41216.0, 68096.0, 92672.0, 76800.0, 81920.0, 59904.0, 46592.0, 76800.0, 49664.0, 59904.0, 92672.0, 184320.0, 92672.0, 112128.0, 105472.0, 184320.0, 76800.0, 68096.0, 59904.0, 112128.0, 87040.0, 72192.0, 153600.0, 105472.0, 92672.0, 72192.0, 105472.0, 98816.0, 112128.0, 126976.0, 81920.0, 81920.0, 63744.0, 52992.0, 105472.0, 105472.0, 59904.0, 63744.0, 63744.0, 72192.0, 72192.0, 87040.0, 87040.0, 87040.0, 92672.0, 76800.0, 252928.0, 209920.0, 153600.0, 174080.0, 63744.0, 196608.0, 144384.0, 92672.0, 76800.0, 72192.0, 63744.0, 162816.0, 43776.0, 68096.0, 144384.0, 144384.0, 52992.0, 43776.0, 43776.0, 81920.0, 68096.0, 68096.0, 59904.0, 68096.0, 52992.0, 52992.0, 43776.0, 36352.0, 63744.0, 72192.0, 76800.0, 46592.0, 59904.0, 68096.0, 81920.0, 59904.0, 72192.0, 59904.0, 68096.0, 49664.0, 59904.0, 56320.0, 41216.0, 30208.0, 112128.0, 72192.0, 56320.0, 38656.0, 56320.0, 63744.0, 87040.0, 63744.0, 38656.0, 63744.0, 112128.0, 59904.0, 46592.0, 46592.0, 52992.0, 87040.0, 87040.0, 49664.0, 36352.0, 81920.0, 46592.0, 81920.0, 76800.0, 46592.0, 72192.0, 49664.0, 52992.0, 52992.0, 92672.0, 52992.0, 92672.0, 112128.0, 98816.0, 81920.0, 59904.0, 38656.0, 81920.0, 49664.0, 72192.0, 52992.0, 72192.0, 135168.0, 49664.0, 162816.0, 87040.0, 59904.0, 46592.0, 59904.0, 59904.0, 34304.0, 34304.0, 52992.0, 56320.0, 63744.0, 49664.0, 119296.0, 63744.0, 63744.0, 34304.0, 52992.0, 43776.0, 59904.0, 105472.0, 119296.0, 184320.0, 144384.0, 32128.0, 18304.0, 22016.0, 23424.0, 23424.0, 28288.0, 36352.0, 24960.0, 19456.0, 24960.0, 28288.0, 36352.0, 46592.0, 30208.0, 22016.0, 18304.0, 30208.0, 36352.0, 28288.0, 41216.0, 34304.0, 30208.0, 34304.0, 72192.0, 72192.0, 76800.0, 41216.0, 43776.0, 46592.0, 59904.0, 63744.0, 59904.0, 41216.0, 28288.0, 56320.0, 43776.0, 49664.0, 43776.0, 46592.0, 59904.0, 92672.0, 63744.0, 34304.0, 49664.0, 56320.0, 68096.0, 92672.0, 56320.0, 59904.0, 63744.0, 41216.0, 59904.0, 68096.0, 76800.0, 41216.0, 59904.0, 63744.0, 68096.0, 41216.0, 81920.0, 46592.0, 41216.0, 92672.0, 81920.0, 87040.0, 52992.0, 105472.0, 81920.0, 41216.0, 68096.0, 26624.0, 52992.0, 56320.0, 59904.0, 72192.0, 63744.0, 92672.0, 72192.0, 63744.0, 59904.0, 92672.0, 81920.0, 59904.0, 63744.0, 105472.0, 92672.0, 162816.0, 174080.0, 56320.0, 59904.0, 41216.0, 41216.0, 56320.0, 56320.0, 43776.0, 76800.0, 34304.0, 49664.0, 52992.0, 46592.0, 52992.0, 59904.0, 68096.0, 32128.0, 41216.0, 49664.0, 92672.0, 81920.0, 81920.0, 52992.0, 196608.0, 209920.0, 34304.0, 43776.0, 32128.0, 56320.0, 59904.0, 26624.0, 56320.0, 36352.0, 36352.0, 46592.0, 81920.0, 56320.0, 52992.0, 72192.0, 72192.0, 76800.0, 63744.0, 41216.0, 46592.0, 52992.0, 38656.0, 49664.0, 43776.0, 46592.0, 49664.0, 87040.0, 28288.0, 49664.0, 46592.0, 63744.0, 52992.0, 63744.0, 52992.0, 68096.0, 34304.0, 52992.0, 46592.0, 59904.0, 81920.0, 112128.0, 52992.0, 81920.0, 119296.0, 72192.0, 52992.0, 56320.0, 98816.0, 59904.0, 52992.0, 98816.0, 46592.0, 52992.0, 87040.0, 72192.0, 98816.0, 87040.0, 105472.0, 59904.0, 72192.0, 63744.0, 56320.0, 81920.0, 126976.0, 92672.0, 68096.0, 105472.0, 92672.0, 98816.0, 105472.0, 184320.0, 87040.0, 174080.0, 135168.0, 76800.0, 135168.0, 87040.0, 63744.0, 81920.0, 98816.0, 56320.0, 68096.0, 105472.0, 76800.0, 72192.0, 52992.0, 72192.0, 38656.0, 49664.0, 49664.0, 68096.0, 87040.0, 119296.0, 68096.0, 92672.0, 38656.0, 43776.0, 87040.0, 63744.0, 81920.0, 112128.0, 135168.0, 105472.0, 87040.0, 49664.0, 98816.0, 76800.0, 76800.0, 59904.0, 56320.0, 43776.0, 59904.0, 43776.0, 76800.0, 63744.0, 46592.0, 46592.0, 52992.0, 56320.0, 59904.0, 46592.0, 52992.0, 49664.0, 36352.0, 63744.0, 52992.0, 59904.0, 43776.0, 52992.0, 34304.0, 38656.0, 41216.0, 34304.0, 63744.0, 41216.0, 43776.0, 52992.0, 72192.0, 43776.0, 59904.0, 56320.0, 46592.0, 38656.0, 52992.0, 72192.0, 52992.0, 52992.0, 162816.0, 252928.0, 174080.0, 92672.0, 112128.0, 87040.0, 112128.0, 63744.0, 119296.0, 105472.0, 68096.0, 34304.0, 43776.0, 76800.0, 87040.0, 63744.0, 52992.0, 112128.0, 153600.0, 87040.0, 135168.0, 49664.0, 184320.0, 92672.0, 98816.0, 92672.0, 68096.0, 87040.0, 72192.0, 46592.0, 76800.0, 126976.0, 153600.0, 87040.0, 153600.0, 126976.0, 52992.0, 196608.0, 144384.0, 92672.0, 144384.0, 105472.0, 92672.0, 92672.0, 174080.0, 112128.0, 76800.0, 119296.0, 196608.0, 98816.0, 56320.0, 126976.0, 76800.0, 105472.0, 72192.0, 112128.0, 87040.0, 92672.0, 72192.0, 36352.0, 68096.0, 68096.0, 56320.0, 43776.0, 87040.0, 92672.0, 135168.0, 76800.0, 81920.0, 105472.0, 43776.0, 63744.0, 59904.0, 76800.0, 87040.0, 68096.0, 87040.0, 135168.0, 49664.0, 26624.0, 41216.0, 41216.0, 36352.0, 34304.0, 46592.0, 49664.0, 56320.0, 46592.0, 63744.0, 43776.0, 38656.0, 46592.0, 43776.0, 41216.0, 68096.0, 41216.0, 28288.0, 43776.0, 38656.0, 43776.0, 59904.0, 59904.0, 52992.0, 72192.0, 68096.0, 46592.0, 59904.0, 63744.0, 59904.0, 46592.0, 43776.0, 41216.0, 43776.0, 56320.0, 59904.0, 52992.0, 87040.0, 38656.0, 52992.0, 46592.0, 72192.0, 63744.0, 72192.0, 36352.0, 68096.0, 63744.0, 68096.0, 68096.0, 105472.0, 76800.0, 72192.0, 76800.0, 92672.0, 59904.0, 135168.0, 46592.0, 81920.0, 49664.0, 56320.0, 112128.0, 52992.0, 98816.0, 56320.0, 52992.0, 56320.0, 63744.0, 68096.0, 119296.0, 105472.0, 76800.0, 46592.0, 63744.0, 43776.0, 68096.0, 52992.0, 56320.0, 49664.0, 52992.0, 81920.0, 68096.0, 59904.0, 49664.0, 63744.0, 68096.0, 59904.0, 81920.0, 38656.0, 46592.0, 30208.0, 92672.0, 46592.0, 34304.0, 72192.0, 68096.0, 52992.0, 43776.0, 68096.0, 174080.0, 59904.0, 59904.0, 72192.0, 46592.0, 46592.0, 63744.0, 92672.0, 68096.0, 72192.0, 76800.0, 49664.0, 36352.0, 38656.0, 46592.0, 43776.0, 34304.0, 38656.0, 43776.0, 28288.0, 24960.0, 41216.0, 49664.0, 49664.0, 43776.0, 49664.0, 52992.0, 46592.0, 30208.0, 26624.0, 30208.0, 36352.0, 30208.0, 34304.0, 22016.0, 34304.0, 26624.0, 38656.0, 38656.0, 32128.0, 36352.0, 43776.0, 59904.0, 46592.0, 46592.0, 30208.0, 32128.0, 56320.0, 36352.0, 38656.0, 56320.0, 32128.0, 34304.0, 46592.0, 68096.0, 32128.0, 49664.0, 43776.0, 46592.0, 81920.0, 112128.0, 76800.0, 56320.0, 68096.0, 81920.0, 49664.0, 56320.0, 43776.0, 43776.0, 49664.0, 52992.0, 41216.0, 63744.0, 43776.0, 52992.0, 32128.0, 46592.0, 63744.0, 46592.0, 41216.0, 46592.0, 38656.0, 43776.0, 34304.0, 41216.0, 38656.0, 43776.0, 34304.0, 28288.0, 28288.0, 32128.0, 34304.0, 28288.0, 38656.0, 34304.0, 32128.0, 34304.0, 38656.0, 38656.0, 32128.0, 32128.0, 30208.0, 41216.0]","[10.875, 9.625, 9.375, 9.375, 9.125, 9.1875, 9.375, 9.375, 9.1875, 9.375, 9.1875, 9.375, 9.375, 9.3125, 9.3125, 9.3125, 9.3125, 9.5, 9.0625, 9.3125, 9.3125, 9.4375, 9.3125, 9.3125, 9.4375, 9.3125, 9.1875, 9.3125, 9.5, 9.5, 9.375, 9.375, 9.375, 9.3125, 9.375, 9.5, 9.5625, 9.5, 9.4375, 9.5, 9.375, 9.375, 9.4375, 9.375, 9.3125, 9.5, 9.4375, 9.625, 9.4375, 9.5, 9.4375, 9.25, 9.3125, 9.375, 9.5, 9.4375, 9.4375, 9.4375, 9.4375, 9.5625, 9.4375, 9.375, 9.9375, 9.5625, 9.5625, 9.4375, 9.5, 9.4375, 9.5, 9.5, 9.5, 9.5, 9.5, 9.4375, 9.4375, 9.4375, 9.5, 9.625, 9.625, 9.75, 9.6875, 9.625, 9.625, 9.625, 9.5625, 9.5, 9.5625, 9.6875, 9.6875, 9.4375, 9.6875, 9.5625, 9.375, 9.4375, 9.5, 9.5, 9.4375, 9.375, 9.375, 9.5625, 9.6875, 9.5625, 9.3125, 9.5, 9.4375, 9.4375, 9.5625, 9.3125, 9.375, 9.5625, 9.8125, 9.3125, 9.3125, 9.4375, 9.375, 9.375, 9.375, 9.5, 9.4375, 9.3125, 9.8125, 9.5625, 9.375, 9.4375, 9.375, 9.4375, 9.4375, 9.3125, 9.625, 9.25, 9.3125, 9.4375, 9.25, 9.25, 9.1875, 9.3125, 9.4375, 9.4375, 9.375, 9.4375, 9.375, 9.3125, 9.375, 9.3125, 9.4375, 9.125, 9.1875, 9.25, 9.0625, 9.3125, 9.4375, 9.3125, 9.375, 9.25, 9.375, 9.1875, 9.25, 9.5, 9.1875, 9.1875, 9.375, 9.1875, 9.1875, 9.1875, 9.375, 9.3125, 9.375, 9.375, 9.4375, 9.25, 9.3125, 9.125, 9.4375, 9.1875, 9.125, 9.3125, 9.25, 9.3125, 9.3125, 9.25, 9.375, 9.1875, 9.125, 9.0625, 9.1875, 9.25, 9.25, 9.3125, 9.25, 9.25, 9.3125, 9.4375, 9.3125, 9.375, 9.375, 9.25, 9.125, 9.1875, 9.25, 9.375, 9.3125, 9.25, 9.375, 9.25, 9.3125, 9.625, 9.375, 9.3125, 9.375, 9.1875, 9.25, 9.3125, 9.1875, 9.1875, 9.25, 9.3125, 9.25, 9.125, 9.1875, 9.375, 9.25, 9.25, 9.1875, 9.25, 9.125, 9.375, 9.375, 9.375, 9.3125, 9.3125, 9.25, 9.1875, 9.875, 9.75, 9.875, 9.25, 9.1875, 9.25, 9.1875, 9.4375, 9.5, 9.375, 9.1875, 9.25, 9.3125, 9.125, 9.3125, 9.125, 9.25, 9.3125, 9.25, 9.0625, 9.4375, 9.375, 9.0625, 9.25, 9.0625, 9.125, 9.1875, 9.1875, 9.25, 9.25, 9.25, 9.1875, 9.1875, 9.25, 9.25, 9.1875, 9.25, 9.1875, 9.1875, 9.375, 9.3125, 9.1875, 9.3125, 9.0625, 9.125, 9.25, 9.25, 9.0625, 8.9375, 9.125, 9.0625, 9.125, 9.1875, 9.125, 9.1875, 9.0625, 9.1875, 9.1875, 9.125, 9.25, 9.0, 9.125, 9.1875, 9.1875, 9.125, 9.0625, 9.125, 9.0625, 9.75, 9.625, 9.625, 9.5, 9.375, 9.3125, 9.1875, 9.375, 9.125, 9.1875, 9.1875, 9.375, 9.5, 9.25, 9.125, 9.25, 9.3125, 9.25, 9.375, 9.1875, 9.3125, 9.3125, 9.5625, 9.5625, 9.5, 9.4375, 9.3125, 9.3125, 9.6875, 9.375, 9.25, 9.125, 9.125, 9.375, 9.3125, 9.4375, 9.1875, 9.5, 9.1875, 9.25, 9.125, 9.375, 9.25, 9.1875, 9.375, 9.3125, 9.4375, 9.375, 9.375, 8.9375, 9.125, 9.125, 9.4375, 9.375, 9.375, 9.3125, 9.625, 10.0625, 11.625, 9.625, 9.8125, 9.625, 9.5, 9.5625, 9.5625, 9.875, 9.6875, 9.8125, 9.5, 9.375, 10.0, 9.8125, 9.8125, 9.9375, 9.9375, 10.0625, 9.875, 10.0625, 10.125, 10.125, 9.8125, 10.25, 10.0, 9.8125, 9.9375, 10.0, 10.0625, 9.75, 9.5625, 9.5, 9.6875, 9.5625, 9.625, 9.625, 9.6875, 9.625, 9.5625, 9.75, 9.6875, 9.5625, 9.625, 9.4375, 9.4375, 9.375, 9.3125, 9.375, 9.5, 9.375, 9.4375, 9.4375, 9.875, 9.8125, 9.8125, 9.8125, 9.625, 9.4375, 9.5, 9.875, 9.5625, 9.625, 9.5, 9.625, 9.6875, 9.5, 9.4375, 9.6875, 9.6875, 9.875, 9.6875, 9.875, 9.6875, 9.5, 9.6875, 9.625, 10.0625, 9.9375, 9.6875, 9.8125, 9.9375, 10.4375, 9.75, 9.6875, 9.625, 9.3125, 9.375, 9.75, 9.375, 9.3125, 9.375, 9.1875, 9.1875, 9.125, 9.375, 9.375, 9.375, 9.5625, 9.375, 9.25, 8.9375, 8.8125, 9.0625, 9.0, 9.0625, 9.125, 8.875, 8.875, 9.0625, 9.0, 9.0625, 9.125, 9.125, 9.125, 9.125, 9.125, 9.1875, 9.0625, 9.0, 9.375, 9.3125, 9.3125, 9.3125, 9.1875, 9.0625, 8.9375, 8.875, 8.9375, 9.25, 9.25, 9.25, 9.125, 9.125, 9.25, 9.4375, 9.25, 9.1875, 9.1875, 9.125, 9.0625, 9.125, 9.25, 9.0, 9.0, 8.9375, 9.125, 9.1875, 9.0625, 9.125, 9.25, 9.1875, 9.1875, 9.125, 9.125, 8.875, 9.125, 9.0, 9.125, 9.0, 9.0625, 9.125, 9.0, 9.125, 9.0, 9.125, 9.3125, 9.1875, 8.9375, 9.0625, 9.1875, 9.0625, 9.0, 9.0625, 9.0, 9.0625, 8.875, 8.8125, 8.9375, 9.0, 9.125, 8.9375, 9.125, 9.0625, 9.1875, 9.1875, 9.125, 9.25, 9.1875, 9.25, 9.125, 9.125, 9.0, 8.9375, 9.25, 9.125, 8.8125, 9.0625, 9.0625, 9.125, 9.125, 9.125, 8.9375, 9.0, 8.9375, 9.0, 9.1875, 9.1875, 9.0625, 8.875, 9.125, 9.25, 9.125, 8.875, 9.0625, 8.9375, 9.1875, 9.0, 8.9375, 9.0625, 9.0625, 9.125, 9.3125, 9.125, 9.125, 9.3125, 9.125, 9.5, 9.125, 9.1875, 9.1875, 9.3125, 9.125, 9.0625, 9.0625, 9.3125, 9.5625, 9.375, 9.4375, 9.3125, 9.0625, 9.25, 9.1875, 9.0625, 9.3125, 9.25, 9.4375, 9.4375, 9.4375, 9.1875, 9.3125, 9.3125, 9.125, 9.25, 9.25, 9.0625, 9.0625, 9.1875, 9.3125, 9.25, 9.25, 9.25, 9.25, 9.125, 9.3125, 9.25, 9.125, 9.125, 9.1875, 9.1875, 9.125, 9.1875, 9.25, 9.1875, 9.125, 9.25, 9.25, 9.25, 9.0625, 9.3125, 9.1875, 9.3125, 9.1875, 9.0, 8.9375, 9.1875, 9.125, 9.375, 9.25, 9.3125, 9.3125, 9.3125, 9.4375, 9.5, 9.375, 9.3125, 9.4375, 9.3125, 9.4375, 9.4375, 9.1875, 9.5, 9.375, 9.375, 9.1875, 9.25, 9.5, 9.1875, 9.25, 9.3125, 9.25, 9.5625, 9.8125, 9.5, 9.4375, 9.4375, 9.3125, 9.25, 9.5, 9.375, 9.25, 9.0625, 9.1875, 9.3125, 9.25, 9.25, 9.1875, 9.5, 9.4375, 9.4375, 9.5625, 9.625, 9.375, 9.3125, 9.375, 9.75, 9.5625, 9.5, 9.5625, 9.1875, 9.125, 9.1875, 9.3125, 9.1875, 9.1875, 9.1875, 9.3125, 9.0, 9.1875, 9.125, 9.1875, 9.0625, 9.0625, 9.125, 9.4375, 9.125, 9.0625, 9.0, 9.0, 9.0625, 9.0625, 9.125, 9.0, 9.1875, 8.875, 9.0625, 9.25, 9.375, 9.125, 9.125, 9.0625, 9.125, 9.125, 9.125, 9.125, 9.0625, 8.875, 9.25, 9.125, 9.0, 9.1875, 9.1875, 9.0, 9.0625, 9.125, 9.3125, 9.375, 9.0625, 9.125, 9.1875, 9.25, 9.125, 9.0625, 9.25, 9.375, 9.25, 9.25, 9.3125, 9.1875, 9.125, 9.3125, 9.1875, 9.1875, 9.25, 9.375, 9.1875, 9.1875, 9.125, 9.1875, 9.1875, 9.25, 9.125, 9.1875, 9.3125, 9.375, 9.3125, 9.6875, 9.375, 9.5625, 9.25, 9.375, 9.3125, 9.25, 9.1875, 9.3125, 9.4375, 9.1875, 9.0, 8.9375, 9.1875, 9.0, 9.0625, 9.0625, 9.0625, 9.125, 9.1875, 9.3125, 9.25, 9.375, 9.375, 9.4375, 9.375, 9.375, 9.25, 9.4375, 9.4375, 9.3125, 9.375, 9.5625, 9.5, 9.5625, 9.5, 9.25, 9.4375, 9.375, 9.125, 9.125, 9.4375, 9.25, 9.0625, 9.1875, 9.25, 8.9375, 9.125, 9.375, 9.5, 9.25, 9.1875, 9.0, 9.3125, 9.1875, 9.1875, 9.0625, 9.125, 9.25, 9.1875, 8.875, 8.8125, 8.8125, 8.875, 8.9375, 9.0, 9.125, 9.0625, 8.8125, 9.0625, 9.125, 9.25, 9.3125, 9.125, 9.0, 8.9375, 9.1875, 9.3125, 9.0625, 9.1875, 9.1875, 9.125, 9.1875, 9.3125, 9.4375, 9.3125, 9.1875, 9.0, 9.125, 9.1875, 8.9375, 9.125, 8.9375, 8.9375, 9.125, 9.0, 8.9375, 9.0625, 9.1875, 9.25, 9.25, 9.1875, 9.0, 9.1875, 9.25, 9.375, 9.4375, 9.3125, 9.1875, 9.375, 9.375, 9.3125, 9.3125, 9.1875, 9.125, 9.3125, 9.3125, 9.4375, 9.0625, 9.1875, 9.1875, 9.125, 9.25, 9.4375, 9.375, 9.125, 9.25, 9.4375, 9.125, 9.4375, 9.0625, 9.125, 9.4375, 9.75, 9.875, 9.625, 9.5, 9.4375, 9.125, 9.375, 9.5, 9.4375, 9.5, 9.375, 9.4375, 9.5, 10.125, 9.75, 9.3125, 9.1875, 8.9375, 9.1875, 9.3125, 9.0625, 9.125, 9.375, 9.0625, 9.375, 9.25, 9.0, 9.0, 9.1875, 9.0625, 8.9375, 9.1875, 9.3125, 9.1875, 9.25, 9.25, 9.0, 9.5, 9.375, 9.0, 9.1875, 9.3125, 9.625, 9.3125, 9.375, 9.4375, 9.3125, 9.125, 9.1875, 9.5625, 9.4375, 9.0625, 9.25, 9.1875, 9.4375, 9.4375, 8.9375, 9.25, 9.3125, 9.1875, 9.125, 9.25, 9.1875, 9.1875, 9.375, 9.125, 9.1875, 9.1875, 9.3125, 9.125, 9.0, 9.0, 9.0, 8.9375, 9.0625, 9.0625, 9.0, 9.25, 9.125, 9.0, 9.25, 9.1875, 9.1875, 8.875, 9.1875, 9.3125, 9.1875, 9.0625, 9.125, 9.25, 9.0625, 9.3125, 9.125, 9.125, 9.0625, 9.3125, 9.3125, 9.4375, 9.0625, 9.125, 9.25, 9.25, 9.3125, 9.3125, 9.375, 9.3125, 9.1875, 9.4375, 9.375, 9.4375, 9.5, 9.375, 9.375, 9.3125, 9.3125, 9.1875, 9.4375, 9.4375, 9.4375, 9.375, 9.375, 9.375, 9.625, 9.375, 9.5, 9.25, 9.3125, 9.375, 9.25, 9.4375, 9.5, 9.375, 9.5625, 9.1875, 9.25, 9.375, 9.1875, 9.125, 9.375, 9.375, 9.4375, 9.375, 9.25, 9.4375, 9.3125, 9.3125, 9.5, 9.3125, 9.1875, 9.375, 9.1875, 9.5, 9.375, 9.25, 9.5, 9.4375, 9.3125, 9.5, 9.4375, 9.375, 9.6875, 9.5625, 9.5625, 9.5625, 9.625, 9.4375, 9.5625, 9.25, 9.375, 9.3125, 9.25, 9.625, 9.5625, 9.4375, 9.5625, 9.625, 9.8125, 9.8125, 9.6875, 9.3125, 9.1875, 9.25, 9.5625, 9.25, 9.375, 9.9375, 9.9375, 10.0, 9.6875, 9.5, 9.5625, 9.6875, 9.625, 9.6875, 9.5, 9.375, 9.1875, 9.375, 9.3125, 9.4375, 9.75, 9.75, 10.0625, 9.9375, 9.9375, 9.9375, 9.625, 10.0625, 10.4375, 10.0, 9.6875, 9.6875, 9.625, 9.625, 9.75, 9.8125, 10.0, 10.25, 10.25, 10.125, 10.1875, 10.0, 10.0, 10.125, 10.25, 10.375, 9.75, 9.375, 9.4375, 10.0, 9.6875, 10.0, 10.125, 10.375, 9.875, 9.625, 9.875, 10.0, 10.25, 10.0625, 10.0625, 10.0, 9.875, 9.875, 9.6875, 10.0625, 10.1875, 9.875, 9.8125, 10.125, 9.875, 10.1875, 10.3125, 10.3125, 10.0, 10.0625, 9.9375, 9.875, 10.0, 10.0, 10.3125, 10.5, 10.8125, 9.3125, 9.125, 9.1875, 9.125, 9.0, 9.0625, 9.0625, 9.1875, 9.25, 9.125, 9.3125, 9.3125, 9.0625, 9.125, 9.1875, 9.125, 9.375, 9.1875, 9.125, 9.1875, 9.125, 9.1875, 9.3125, 9.1875, 9.3125, 9.5, 9.3125, 9.25, 9.25, 9.4375, 9.375, 9.3125, 9.4375, 9.4375, 9.625, 9.875, 9.9375, 9.75, 10.1875, 9.6875, 9.75, 9.6875, 9.625, 9.375, 9.75, 9.625, 9.6875, 9.5625, 9.75, 9.4375, 9.625, 9.75, 9.5625, 9.6875, 9.6875, 9.6875, 10.0, 9.6875, 9.5625, 9.6875, 9.8125, 10.1875, 9.875, 10.0625, 9.8125, 9.8125, 9.6875, 10.0, 9.875, 10.125, 10.0625, 9.8125, 9.625, 10.0, 10.0625, 9.9375, 9.5625, 9.625, 9.5625, 9.75, 9.875, 9.5625, 9.4375, 9.3125, 9.375, 9.5, 9.375, 9.5, 9.3125, 9.1875, 9.25, 9.5, 9.1875, 9.0625, 9.4375, 9.25, 9.3125, 9.1875, 9.3125, 9.6875, 9.4375, 9.5, 9.4375, 9.625, 9.5625, 9.5625, 9.8125, 9.875, 10.0, 9.9375, 9.375, 9.25, 9.25, 9.25, 9.25, 9.25, 9.125, 9.3125, 9.0625, 9.0625, 9.375, 9.25, 9.3125, 9.4375, 9.5625, 9.5, 9.375, 9.0625, 8.75, 8.8125, 9.0, 8.9375, 8.9375, 8.75, 9.1875, 8.9375, 9.25, 9.6875, 9.375, 9.375, 9.4375, 9.5625, 9.6875, 9.625, 9.375, 9.25, 9.8125, 9.6875, 9.8125, 10.1875, 9.75, 9.8125, 9.8125, 9.875, 9.5, 9.6875, 9.75, 9.4375, 10.1875, 10.1875, 9.9375, 9.875, 10.25, 10.1875, 10.25, 10.0, 9.6875, 9.6875, 9.5, 9.75, 9.5, 9.625, 9.75, 9.6875, 9.4375, 9.875, 9.9375, 9.5625, 9.625, 9.75, 9.5625, 9.6875, 9.625, 10.0, 9.9375, 10.125, 10.0, 9.625, 9.5625, 9.75, 9.4375, 9.4375, 9.5, 9.5, 9.375, 9.375, 9.375, 9.375, 9.3125, 9.0625, 9.0, 9.125]","[52992.0, 15168.0, 11840.0, 11840.0, 9216.0, 9792.0, 11840.0, 11840.0, 9792.0, 11840.0, 9792.0, 11840.0, 11840.0, 11072.0, 11072.0, 11072.0, 11072.0, 13376.0, 8640.0, 11072.0, 11072.0, 12544.0, 11072.0, 11072.0, 12544.0, 11072.0, 9792.0, 11072.0, 13376.0, 13376.0, 11840.0, 11840.0, 11840.0, 11072.0, 11840.0, 13376.0, 14272.0, 13376.0, 12544.0, 13376.0, 11840.0, 11840.0, 12544.0, 11840.0, 11072.0, 13376.0, 12544.0, 15168.0, 12544.0, 13376.0, 12544.0, 10432.0, 11072.0, 11840.0, 13376.0, 12544.0, 12544.0, 12544.0, 12544.0, 14272.0, 12544.0, 11840.0, 20736.0, 14272.0, 14272.0, 12544.0, 13376.0, 12544.0, 13376.0, 13376.0, 13376.0, 13376.0, 13376.0, 12544.0, 12544.0, 12544.0, 13376.0, 15168.0, 15168.0, 17152.0, 16128.0, 15168.0, 15168.0, 15168.0, 14272.0, 13376.0, 14272.0, 16128.0, 16128.0, 12544.0, 16128.0, 14272.0, 11840.0, 12544.0, 13376.0, 13376.0, 12544.0, 11840.0, 11840.0, 14272.0, 16128.0, 14272.0, 11072.0, 13376.0, 12544.0, 12544.0, 14272.0, 11072.0, 11840.0, 14272.0, 18304.0, 11072.0, 11072.0, 12544.0, 11840.0, 11840.0, 11840.0, 13376.0, 12544.0, 11072.0, 18304.0, 14272.0, 11840.0, 12544.0, 11840.0, 12544.0, 12544.0, 11072.0, 15168.0, 10432.0, 11072.0, 12544.0, 10432.0, 10432.0, 9792.0, 11072.0, 12544.0, 12544.0, 11840.0, 12544.0, 11840.0, 11072.0, 11840.0, 11072.0, 12544.0, 9216.0, 9792.0, 10432.0, 8640.0, 11072.0, 12544.0, 11072.0, 11840.0, 10432.0, 11840.0, 9792.0, 10432.0, 13376.0, 9792.0, 9792.0, 11840.0, 9792.0, 9792.0, 9792.0, 11840.0, 11072.0, 11840.0, 11840.0, 12544.0, 10432.0, 11072.0, 9216.0, 12544.0, 9792.0, 9216.0, 11072.0, 10432.0, 11072.0, 11072.0, 10432.0, 11840.0, 9792.0, 9216.0, 8640.0, 9792.0, 10432.0, 10432.0, 11072.0, 10432.0, 10432.0, 11072.0, 12544.0, 11072.0, 11840.0, 11840.0, 10432.0, 9216.0, 9792.0, 10432.0, 11840.0, 11072.0, 10432.0, 11840.0, 10432.0, 11072.0, 15168.0, 11840.0, 11072.0, 11840.0, 9792.0, 10432.0, 11072.0, 9792.0, 9792.0, 10432.0, 11072.0, 10432.0, 9216.0, 9792.0, 11840.0, 10432.0, 10432.0, 9792.0, 10432.0, 9216.0, 11840.0, 11840.0, 11840.0, 11072.0, 11072.0, 10432.0, 9792.0, 19456.0, 17152.0, 19456.0, 10432.0, 9792.0, 10432.0, 9792.0, 12544.0, 13376.0, 11840.0, 9792.0, 10432.0, 11072.0, 9216.0, 11072.0, 9216.0, 10432.0, 11072.0, 10432.0, 8640.0, 12544.0, 11840.0, 8640.0, 10432.0, 8640.0, 9216.0, 9792.0, 9792.0, 10432.0, 10432.0, 10432.0, 9792.0, 9792.0, 10432.0, 10432.0, 9792.0, 10432.0, 9792.0, 9792.0, 11840.0, 11072.0, 9792.0, 11072.0, 8640.0, 9216.0, 10432.0, 10432.0, 8640.0, 7616.0, 9216.0, 8640.0, 9216.0, 9792.0, 9216.0, 9792.0, 8640.0, 9792.0, 9792.0, 9216.0, 10432.0, 8128.0, 9216.0, 9792.0, 9792.0, 9216.0, 8640.0, 9216.0, 8640.0, 17152.0, 15168.0, 15168.0, 13376.0, 11840.0, 11072.0, 9792.0, 11840.0, 9216.0, 9792.0, 9792.0, 11840.0, 13376.0, 10432.0, 9216.0, 10432.0, 11072.0, 10432.0, 11840.0, 9792.0, 11072.0, 11072.0, 14272.0, 14272.0, 13376.0, 12544.0, 11072.0, 11072.0, 16128.0, 11840.0, 10432.0, 9216.0, 9216.0, 11840.0, 11072.0, 12544.0, 9792.0, 13376.0, 9792.0, 10432.0, 9216.0, 11840.0, 10432.0, 9792.0, 11840.0, 11072.0, 12544.0, 11840.0, 11840.0, 7616.0, 9216.0, 9216.0, 12544.0, 11840.0, 11840.0, 11072.0, 15168.0, 23424.0, 112128.0, 15168.0, 18304.0, 15168.0, 13376.0, 14272.0, 14272.0, 19456.0, 16128.0, 18304.0, 13376.0, 11840.0, 22016.0, 18304.0, 18304.0, 20736.0, 20736.0, 23424.0, 19456.0, 23424.0, 24960.0, 24960.0, 18304.0, 28288.0, 22016.0, 18304.0, 20736.0, 22016.0, 23424.0, 17152.0, 14272.0, 13376.0, 16128.0, 14272.0, 15168.0, 15168.0, 16128.0, 15168.0, 14272.0, 17152.0, 16128.0, 14272.0, 15168.0, 12544.0, 12544.0, 11840.0, 11072.0, 11840.0, 13376.0, 11840.0, 12544.0, 12544.0, 19456.0, 18304.0, 18304.0, 18304.0, 15168.0, 12544.0, 13376.0, 19456.0, 14272.0, 15168.0, 13376.0, 15168.0, 16128.0, 13376.0, 12544.0, 16128.0, 16128.0, 19456.0, 16128.0, 19456.0, 16128.0, 13376.0, 16128.0, 15168.0, 23424.0, 20736.0, 16128.0, 18304.0, 20736.0, 34304.0, 17152.0, 16128.0, 15168.0, 11072.0, 11840.0, 17152.0, 11840.0, 11072.0, 11840.0, 9792.0, 9792.0, 9216.0, 11840.0, 11840.0, 11840.0, 14272.0, 11840.0, 10432.0, 7616.0, 6720.0, 8640.0, 8128.0, 8640.0, 9216.0, 7168.0, 7168.0, 8640.0, 8128.0, 8640.0, 9216.0, 9216.0, 9216.0, 9216.0, 9216.0, 9792.0, 8640.0, 8128.0, 11840.0, 11072.0, 11072.0, 11072.0, 9792.0, 8640.0, 7616.0, 7168.0, 7616.0, 10432.0, 10432.0, 10432.0, 9216.0, 9216.0, 10432.0, 12544.0, 10432.0, 9792.0, 9792.0, 9216.0, 8640.0, 9216.0, 10432.0, 8128.0, 8128.0, 7616.0, 9216.0, 9792.0, 8640.0, 9216.0, 10432.0, 9792.0, 9792.0, 9216.0, 9216.0, 7168.0, 9216.0, 8128.0, 9216.0, 8128.0, 8640.0, 9216.0, 8128.0, 9216.0, 8128.0, 9216.0, 11072.0, 9792.0, 7616.0, 8640.0, 9792.0, 8640.0, 8128.0, 8640.0, 8128.0, 8640.0, 7168.0, 6720.0, 7616.0, 8128.0, 9216.0, 7616.0, 9216.0, 8640.0, 9792.0, 9792.0, 9216.0, 10432.0, 9792.0, 10432.0, 9216.0, 9216.0, 8128.0, 7616.0, 10432.0, 9216.0, 6720.0, 8640.0, 8640.0, 9216.0, 9216.0, 9216.0, 7616.0, 8128.0, 7616.0, 8128.0, 9792.0, 9792.0, 8640.0, 7168.0, 9216.0, 10432.0, 9216.0, 7168.0, 8640.0, 7616.0, 9792.0, 8128.0, 7616.0, 8640.0, 8640.0, 9216.0, 11072.0, 9216.0, 9216.0, 11072.0, 9216.0, 13376.0, 9216.0, 9792.0, 9792.0, 11072.0, 9216.0, 8640.0, 8640.0, 11072.0, 14272.0, 11840.0, 12544.0, 11072.0, 8640.0, 10432.0, 9792.0, 8640.0, 11072.0, 10432.0, 12544.0, 12544.0, 12544.0, 9792.0, 11072.0, 11072.0, 9216.0, 10432.0, 10432.0, 8640.0, 8640.0, 9792.0, 11072.0, 10432.0, 10432.0, 10432.0, 10432.0, 9216.0, 11072.0, 10432.0, 9216.0, 9216.0, 9792.0, 9792.0, 9216.0, 9792.0, 10432.0, 9792.0, 9216.0, 10432.0, 10432.0, 10432.0, 8640.0, 11072.0, 9792.0, 11072.0, 9792.0, 8128.0, 7616.0, 9792.0, 9216.0, 11840.0, 10432.0, 11072.0, 11072.0, 11072.0, 12544.0, 13376.0, 11840.0, 11072.0, 12544.0, 11072.0, 12544.0, 12544.0, 9792.0, 13376.0, 11840.0, 11840.0, 9792.0, 10432.0, 13376.0, 9792.0, 10432.0, 11072.0, 10432.0, 14272.0, 18304.0, 13376.0, 12544.0, 12544.0, 11072.0, 10432.0, 13376.0, 11840.0, 10432.0, 8640.0, 9792.0, 11072.0, 10432.0, 10432.0, 9792.0, 13376.0, 12544.0, 12544.0, 14272.0, 15168.0, 11840.0, 11072.0, 11840.0, 17152.0, 14272.0, 13376.0, 14272.0, 9792.0, 9216.0, 9792.0, 11072.0, 9792.0, 9792.0, 9792.0, 11072.0, 8128.0, 9792.0, 9216.0, 9792.0, 8640.0, 8640.0, 9216.0, 12544.0, 9216.0, 8640.0, 8128.0, 8128.0, 8640.0, 8640.0, 9216.0, 8128.0, 9792.0, 7168.0, 8640.0, 10432.0, 11840.0, 9216.0, 9216.0, 8640.0, 9216.0, 9216.0, 9216.0, 9216.0, 8640.0, 7168.0, 10432.0, 9216.0, 8128.0, 9792.0, 9792.0, 8128.0, 8640.0, 9216.0, 11072.0, 11840.0, 8640.0, 9216.0, 9792.0, 10432.0, 9216.0, 8640.0, 10432.0, 11840.0, 10432.0, 10432.0, 11072.0, 9792.0, 9216.0, 11072.0, 9792.0, 9792.0, 10432.0, 11840.0, 9792.0, 9792.0, 9216.0, 9792.0, 9792.0, 10432.0, 9216.0, 9792.0, 11072.0, 11840.0, 11072.0, 16128.0, 11840.0, 14272.0, 10432.0, 11840.0, 11072.0, 10432.0, 9792.0, 11072.0, 12544.0, 9792.0, 8128.0, 7616.0, 9792.0, 8128.0, 8640.0, 8640.0, 8640.0, 9216.0, 9792.0, 11072.0, 10432.0, 11840.0, 11840.0, 12544.0, 11840.0, 11840.0, 10432.0, 12544.0, 12544.0, 11072.0, 11840.0, 14272.0, 13376.0, 14272.0, 13376.0, 10432.0, 12544.0, 11840.0, 9216.0, 9216.0, 12544.0, 10432.0, 8640.0, 9792.0, 10432.0, 7616.0, 9216.0, 11840.0, 13376.0, 10432.0, 9792.0, 8128.0, 11072.0, 9792.0, 9792.0, 8640.0, 9216.0, 10432.0, 9792.0, 7168.0, 6720.0, 6720.0, 7168.0, 7616.0, 8128.0, 9216.0, 8640.0, 6720.0, 8640.0, 9216.0, 10432.0, 11072.0, 9216.0, 8128.0, 7616.0, 9792.0, 11072.0, 8640.0, 9792.0, 9792.0, 9216.0, 9792.0, 11072.0, 12544.0, 11072.0, 9792.0, 8128.0, 9216.0, 9792.0, 7616.0, 9216.0, 7616.0, 7616.0, 9216.0, 8128.0, 7616.0, 8640.0, 9792.0, 10432.0, 10432.0, 9792.0, 8128.0, 9792.0, 10432.0, 11840.0, 12544.0, 11072.0, 9792.0, 11840.0, 11840.0, 11072.0, 11072.0, 9792.0, 9216.0, 11072.0, 11072.0, 12544.0, 8640.0, 9792.0, 9792.0, 9216.0, 10432.0, 12544.0, 11840.0, 9216.0, 10432.0, 12544.0, 9216.0, 12544.0, 8640.0, 9216.0, 12544.0, 17152.0, 19456.0, 15168.0, 13376.0, 12544.0, 9216.0, 11840.0, 13376.0, 12544.0, 13376.0, 11840.0, 12544.0, 13376.0, 24960.0, 17152.0, 11072.0, 9792.0, 7616.0, 9792.0, 11072.0, 8640.0, 9216.0, 11840.0, 8640.0, 11840.0, 10432.0, 8128.0, 8128.0, 9792.0, 8640.0, 7616.0, 9792.0, 11072.0, 9792.0, 10432.0, 10432.0, 8128.0, 13376.0, 11840.0, 8128.0, 9792.0, 11072.0, 15168.0, 11072.0, 11840.0, 12544.0, 11072.0, 9216.0, 9792.0, 14272.0, 12544.0, 8640.0, 10432.0, 9792.0, 12544.0, 12544.0, 7616.0, 10432.0, 11072.0, 9792.0, 9216.0, 10432.0, 9792.0, 9792.0, 11840.0, 9216.0, 9792.0, 9792.0, 11072.0, 9216.0, 8128.0, 8128.0, 8128.0, 7616.0, 8640.0, 8640.0, 8128.0, 10432.0, 9216.0, 8128.0, 10432.0, 9792.0, 9792.0, 7168.0, 9792.0, 11072.0, 9792.0, 8640.0, 9216.0, 10432.0, 8640.0, 11072.0, 9216.0, 9216.0, 8640.0, 11072.0, 11072.0, 12544.0, 8640.0, 9216.0, 10432.0, 10432.0, 11072.0, 11072.0, 11840.0, 11072.0, 9792.0, 12544.0, 11840.0, 12544.0, 13376.0, 11840.0, 11840.0, 11072.0, 11072.0, 9792.0, 12544.0, 12544.0, 12544.0, 11840.0, 11840.0, 11840.0, 15168.0, 11840.0, 13376.0, 10432.0, 11072.0, 11840.0, 10432.0, 12544.0, 13376.0, 11840.0, 14272.0, 9792.0, 10432.0, 11840.0, 9792.0, 9216.0, 11840.0, 11840.0, 12544.0, 11840.0, 10432.0, 12544.0, 11072.0, 11072.0, 13376.0, 11072.0, 9792.0, 11840.0, 9792.0, 13376.0, 11840.0, 10432.0, 13376.0, 12544.0, 11072.0, 13376.0, 12544.0, 11840.0, 16128.0, 14272.0, 14272.0, 14272.0, 15168.0, 12544.0, 14272.0, 10432.0, 11840.0, 11072.0, 10432.0, 15168.0, 14272.0, 12544.0, 14272.0, 15168.0, 18304.0, 18304.0, 16128.0, 11072.0, 9792.0, 10432.0, 14272.0, 10432.0, 11840.0, 20736.0, 20736.0, 22016.0, 16128.0, 13376.0, 14272.0, 16128.0, 15168.0, 16128.0, 13376.0, 11840.0, 9792.0, 11840.0, 11072.0, 12544.0, 17152.0, 17152.0, 23424.0, 20736.0, 20736.0, 20736.0, 15168.0, 23424.0, 34304.0, 22016.0, 16128.0, 16128.0, 15168.0, 15168.0, 17152.0, 18304.0, 22016.0, 28288.0, 28288.0, 24960.0, 26624.0, 22016.0, 22016.0, 24960.0, 28288.0, 32128.0, 17152.0, 11840.0, 12544.0, 22016.0, 16128.0, 22016.0, 24960.0, 32128.0, 19456.0, 15168.0, 19456.0, 22016.0, 28288.0, 23424.0, 23424.0, 22016.0, 19456.0, 19456.0, 16128.0, 23424.0, 26624.0, 19456.0, 18304.0, 24960.0, 19456.0, 26624.0, 30208.0, 30208.0, 22016.0, 23424.0, 20736.0, 19456.0, 22016.0, 22016.0, 30208.0, 36352.0, 49664.0, 11072.0, 9216.0, 9792.0, 9216.0, 8128.0, 8640.0, 8640.0, 9792.0, 10432.0, 9216.0, 11072.0, 11072.0, 8640.0, 9216.0, 9792.0, 9216.0, 11840.0, 9792.0, 9216.0, 9792.0, 9216.0, 9792.0, 11072.0, 9792.0, 11072.0, 13376.0, 11072.0, 10432.0, 10432.0, 12544.0, 11840.0, 11072.0, 12544.0, 12544.0, 15168.0, 19456.0, 20736.0, 17152.0, 26624.0, 16128.0, 17152.0, 16128.0, 15168.0, 11840.0, 17152.0, 15168.0, 16128.0, 14272.0, 17152.0, 12544.0, 15168.0, 17152.0, 14272.0, 16128.0, 16128.0, 16128.0, 22016.0, 16128.0, 14272.0, 16128.0, 18304.0, 26624.0, 19456.0, 23424.0, 18304.0, 18304.0, 16128.0, 22016.0, 19456.0, 24960.0, 23424.0, 18304.0, 15168.0, 22016.0, 23424.0, 20736.0, 14272.0, 15168.0, 14272.0, 17152.0, 19456.0, 14272.0, 12544.0, 11072.0, 11840.0, 13376.0, 11840.0, 13376.0, 11072.0, 9792.0, 10432.0, 13376.0, 9792.0, 8640.0, 12544.0, 10432.0, 11072.0, 9792.0, 11072.0, 16128.0, 12544.0, 13376.0, 12544.0, 15168.0, 14272.0, 14272.0, 18304.0, 19456.0, 22016.0, 20736.0, 11840.0, 10432.0, 10432.0, 10432.0, 10432.0, 10432.0, 9216.0, 11072.0, 8640.0, 8640.0, 11840.0, 10432.0, 11072.0, 12544.0, 14272.0, 13376.0, 11840.0, 8640.0, 6336.0, 6720.0, 8128.0, 7616.0, 7616.0, 6336.0, 9792.0, 7616.0, 10432.0, 16128.0, 11840.0, 11840.0, 12544.0, 14272.0, 16128.0, 15168.0, 11840.0, 10432.0, 18304.0, 16128.0, 18304.0, 26624.0, 17152.0, 18304.0, 18304.0, 19456.0, 13376.0, 16128.0, 17152.0, 12544.0, 26624.0, 26624.0, 20736.0, 19456.0, 28288.0, 26624.0, 28288.0, 22016.0, 16128.0, 16128.0, 13376.0, 17152.0, 13376.0, 15168.0, 17152.0, 16128.0, 12544.0, 19456.0, 20736.0, 14272.0, 15168.0, 17152.0, 14272.0, 16128.0, 15168.0, 22016.0, 20736.0, 24960.0, 22016.0, 15168.0, 14272.0, 17152.0, 12544.0, 12544.0, 13376.0, 13376.0, 11840.0, 11840.0, 11840.0, 11840.0, 11072.0, 8640.0, 8128.0, 9216.0]","[10.9375, 9.3125, 9.0625, 9.125, 8.9375, 8.9375, 9.1875, 9.125, 9.0625, 8.9375, 8.8125, 9.125, 9.0625, 9.125, 9.125, 9.3125, 9.5, 9.3125, 9.0625, 9.125, 9.0625, 9.1875, 9.3125, 9.3125, 9.625, 9.1875, 9.125, 9.1875, 9.4375, 9.6875, 9.6875, 9.375, 9.3125, 9.375, 9.1875, 9.5625, 10.0, 10.375, 9.6875, 10.125, 9.4375, 9.375, 9.4375, 9.5, 9.375, 9.625, 9.8125, 10.3125, 10.25, 10.5625, 10.0625, 9.875, 9.625, 9.8125, 10.25, 9.9375, 9.6875, 10.4375, 10.0, 10.375, 10.625, 10.1875, 12.4375, 9.6875, 9.375, 9.1875, 9.1875, 9.4375, 9.8125, 9.5625, 9.625, 9.5, 10.3125, 10.875, 10.4375, 10.375, 10.0625, 11.0, 11.0, 11.0, 11.0625, 10.9375, 11.0, 11.3125, 11.125, 10.625, 10.875, 11.6875, 11.25, 10.75, 11.5625, 11.125, 10.5625, 10.625, 10.9375, 11.0625, 11.5, 11.5, 10.75, 11.5625, 11.875, 12.0625, 10.625, 11.1875, 10.5, 10.5, 10.875, 10.125, 10.5625, 11.6875, 12.6875, 11.875, 11.5, 12.8125, 10.0, 10.1875, 11.125, 10.8125, 11.375, 11.625, 13.1875, 12.5625, 11.3125, 11.25, 10.875, 10.5625, 11.25, 11.0625, 11.5, 9.625, 9.8125, 10.5625, 10.3125, 10.375, 9.875, 10.75, 10.75, 10.75, 10.8125, 11.125, 10.6875, 10.0625, 10.6875, 11.0625, 11.9375, 10.9375, 11.4375, 10.1875, 10.3125, 10.375, 11.8125, 10.75, 10.5, 10.0, 10.0625, 10.125, 10.3125, 11.375, 10.375, 10.6875, 11.5, 10.875, 10.6875, 10.625, 11.8125, 10.5625, 11.375, 11.0625, 10.625, 10.0, 11.125, 10.4375, 12.0, 10.4375, 10.125, 11.0625, 11.0, 11.3125, 11.25, 11.3125, 11.125, 10.1875, 10.0, 9.5, 9.5, 9.9375, 10.0625, 10.5625, 10.0, 10.4375, 9.6875, 10.5625, 10.875, 10.5, 11.125, 10.6875, 9.8125, 10.0, 10.8125, 11.25, 11.0625, 10.8125, 10.875, 10.25, 11.375, 11.4375, 10.9375, 10.9375, 11.25, 10.9375, 10.25, 9.9375, 10.0625, 9.875, 10.1875, 10.9375, 10.75, 9.8125, 9.8125, 9.5625, 9.6875, 10.3125, 9.8125, 10.1875, 10.3125, 10.8125, 10.8125, 10.8125, 10.6875, 10.875, 11.1875, 10.125, 11.75, 11.625, 11.625, 10.25, 10.1875, 10.5625, 10.625, 11.6875, 12.0, 10.125, 10.375, 10.9375, 11.5, 10.25, 9.75, 9.625, 9.8125, 9.9375, 9.8125, 10.0625, 11.0625, 10.5625, 10.25, 10.25, 9.625, 10.0, 9.9375, 10.125, 10.375, 10.375, 10.3125, 9.875, 10.25, 9.75, 10.3125, 10.125, 10.1875, 10.25, 10.6875, 11.0625, 10.5625, 10.375, 10.875, 10.5, 10.5, 11.375, 11.25, 9.5, 9.6875, 10.375, 10.3125, 10.1875, 10.375, 9.8125, 9.5625, 9.75, 9.875, 10.1875, 9.75, 9.9375, 9.625, 9.8125, 10.0625, 10.25, 10.0, 9.5625, 9.5, 9.6875, 11.375, 11.5, 11.625, 11.3125, 10.4375, 9.875, 9.875, 10.125, 9.6875, 9.875, 10.0625, 10.5625, 11.0, 9.875, 9.6875, 10.125, 10.3125, 10.4375, 10.5, 10.375, 10.1875, 10.9375, 11.75, 11.875, 11.75, 10.875, 10.375, 10.25, 11.3125, 11.0, 10.8125, 10.0, 9.9375, 11.25, 10.5, 11.125, 10.6875, 10.625, 9.625, 10.0625, 9.6875, 10.5, 9.875, 10.1875, 10.6875, 10.4375, 11.1875, 11.1875, 10.75, 9.8125, 10.25, 10.4375, 11.25, 11.0, 10.875, 11.375, 12.8125, 13.9375, 18.75, 13.5, 15.9375, 15.5, 14.4375, 15.375, 15.5625, 16.25, 15.5, 16.125, 14.8125, 15.875, 16.375, 15.875, 15.3125, 16.125, 15.625, 16.625, 15.6875, 15.1875, 15.5, 14.6875, 12.5625, 12.3125, 12.1875, 12.375, 12.9375, 13.375, 13.5625, 12.4375, 11.375, 11.1875, 11.5, 11.75, 12.3125, 12.3125, 12.5, 13.1875, 12.5625, 12.9375, 13.0, 12.4375, 12.25, 12.375, 12.25, 12.0625, 12.3125, 12.5625, 13.5625, 12.875, 13.625, 13.375, 14.0625, 13.0625, 12.375, 13.0, 12.375, 12.875, 13.1875, 14.0, 13.5, 15.0625, 15.1875, 14.625, 14.25, 13.6875, 13.25, 13.9375, 13.4375, 14.1875, 14.375, 15.75, 15.4375, 15.1875, 15.3125, 15.75, 16.5, 16.625, 15.4375, 15.125, 15.3125, 14.75, 14.3125, 14.5625, 14.25, 13.75, 13.5625, 14.3125, 14.4375, 14.6875, 14.4375, 14.25, 13.5, 14.0625, 13.0625, 13.0, 12.9375, 13.125, 12.1875, 10.75, 9.0, 8.9375, 8.9375, 9.0625, 10.0625, 10.125, 10.0, 10.4375, 10.3125, 10.375, 10.625, 11.0, 10.8125, 11.8125, 11.125, 11.1875, 11.5, 11.0, 11.25, 11.8125, 11.75, 12.25, 12.3125, 12.75, 9.8125, 9.375, 9.25, 9.6875, 10.1875, 10.125, 10.0625, 9.6875, 9.875, 10.3125, 11.0, 11.1875, 10.5625, 10.6875, 9.625, 9.3125, 10.3125, 10.625, 9.625, 9.5, 9.375, 9.6875, 10.3125, 10.0625, 10.1875, 9.75, 10.3125, 10.4375, 10.3125, 9.5625, 9.3125, 9.5, 10.0625, 9.875, 10.0625, 10.0625, 9.75, 9.5, 9.5, 9.25, 10.25, 10.375, 10.1875, 10.3125, 10.5625, 10.25, 10.125, 9.5, 9.8125, 10.25, 10.4375, 8.9375, 8.75, 8.75, 9.0, 9.6875, 9.6875, 9.8125, 9.8125, 9.875, 10.125, 10.375, 10.9375, 10.6875, 10.75, 10.375, 9.5625, 9.875, 9.625, 10.0, 9.5625, 9.4375, 9.875, 9.9375, 9.875, 9.9375, 9.9375, 9.5625, 9.25, 9.5, 9.6875, 9.875, 10.3125, 9.875, 9.5625, 9.75, 10.25, 9.9375, 9.5625, 9.4375, 9.75, 9.9375, 9.6875, 9.75, 9.625, 9.5625, 9.5625, 10.25, 10.5625, 10.75, 11.4375, 10.5625, 11.0, 10.375, 10.875, 10.9375, 10.625, 10.1875, 9.75, 10.4375, 11.1875, 12.1875, 12.1875, 12.1875, 11.5625, 10.5625, 10.75, 10.4375, 10.5625, 11.1875, 10.875, 11.8125, 11.875, 11.8125, 10.8125, 10.75, 10.375, 10.0, 10.5, 11.0, 10.3125, 10.3125, 10.625, 10.75, 10.375, 10.6875, 10.6875, 10.625, 10.8125, 11.0, 11.0, 10.875, 10.625, 10.8125, 10.9375, 10.5625, 10.6875, 11.1875, 10.8125, 10.875, 11.375, 11.4375, 11.4375, 11.3125, 11.375, 11.3125, 11.25, 10.625, 10.3125, 10.375, 11.6875, 11.8125, 12.5, 12.375, 12.0625, 12.25, 12.1875, 12.6875, 12.6875, 12.5625, 11.8125, 12.0, 11.875, 12.3125, 11.4375, 10.625, 11.3125, 11.6875, 11.75, 11.25, 11.3125, 11.9375, 11.125, 10.75, 11.375, 11.25, 12.25, 13.125, 12.25, 11.75, 12.25, 11.9375, 11.6875, 12.625, 12.5, 12.4375, 11.625, 12.125, 12.625, 12.1875, 11.625, 11.75, 12.75, 13.0, 12.4375, 13.0, 13.1875, 12.3125, 11.9375, 13.625, 13.6875, 13.4375, 13.75, 13.3125, 12.0, 11.25, 11.5625, 11.8125, 12.9375, 11.6875, 10.8125, 11.8125, 10.9375, 11.875, 11.4375, 11.625, 10.375, 10.1875, 10.8125, 13.1875, 11.75, 11.375, 9.5625, 9.1875, 9.5625, 10.0625, 10.6875, 11.125, 11.6875, 10.875, 10.5625, 13.875, 14.5, 12.625, 11.375, 11.8125, 13.1875, 12.5625, 12.0625, 11.5625, 11.0, 11.0, 11.875, 11.1875, 11.125, 11.875, 12.0, 10.9375, 11.0, 11.3125, 11.875, 11.9375, 11.1875, 11.5, 11.5, 11.0, 10.4375, 10.8125, 11.5, 12.4375, 12.3125, 12.375, 12.4375, 12.25, 12.3125, 12.375, 11.875, 12.1875, 11.75, 11.75, 11.9375, 12.25, 11.25, 11.5, 12.375, 11.9375, 12.1875, 11.375, 11.75, 12.4375, 12.1875, 12.3125, 12.1875, 12.5, 12.1875, 12.625, 12.8125, 12.5, 12.0, 12.125, 12.25, 11.4375, 11.0625, 12.0625, 11.4375, 10.875, 11.0, 11.0, 11.5625, 11.875, 11.375, 11.0625, 12.1875, 12.625, 12.375, 13.0, 12.6875, 12.5625, 13.0625, 13.5625, 12.5625, 11.8125, 12.25, 12.875, 12.9375, 13.5, 12.625, 12.6875, 12.625, 12.3125, 11.6875, 11.125, 10.9375, 10.6875, 11.0625, 11.8125, 13.0, 12.0, 12.625, 12.25, 13.25, 12.25, 11.25, 10.25, 11.5625, 11.9375, 11.75, 12.9375, 12.75, 12.125, 12.5, 10.0625, 8.9375, 9.0, 9.3125, 9.5, 9.625, 9.9375, 9.6875, 9.25, 9.6875, 10.0, 10.5625, 11.4375, 10.25, 9.625, 9.625, 10.0, 10.0625, 9.8125, 10.6875, 11.3125, 11.0, 10.8125, 12.3125, 12.25, 11.4375, 10.5625, 10.25, 10.875, 10.6875, 11.125, 11.0, 10.5625, 10.5, 10.6875, 10.375, 10.8125, 10.9375, 11.0625, 11.375, 11.3125, 11.3125, 10.8125, 10.875, 10.6875, 12.0625, 13.1875, 12.875, 12.625, 12.8125, 12.5625, 12.25, 12.4375, 11.875, 11.625, 12.0625, 12.5625, 12.125, 11.8125, 11.875, 11.375, 11.25, 12.0625, 11.9375, 12.5625, 11.9375, 12.3125, 12.25, 10.9375, 11.6875, 11.1875, 11.25, 12.8125, 13.0, 13.25, 13.5, 13.6875, 12.9375, 12.0, 12.1875, 13.0625, 13.25, 13.25, 12.8125, 12.9375, 12.875, 14.9375, 14.6875, 12.9375, 12.1875, 11.0, 11.5, 11.625, 11.1875, 10.8125, 11.0, 10.625, 11.375, 12.0625, 11.375, 11.5625, 12.1875, 11.5625, 11.3125, 10.625, 11.4375, 12.4375, 12.5, 12.375, 11.625, 15.875, 13.4375, 10.5, 10.0625, 10.25, 11.5625, 11.75, 11.625, 11.6875, 11.4375, 11.25, 12.4375, 12.5625, 12.125, 12.0, 11.9375, 11.8125, 12.625, 12.1875, 11.375, 11.5, 11.375, 11.0, 10.9375, 11.1875, 11.1875, 11.1875, 11.625, 11.1875, 11.1875, 11.875, 11.75, 11.3125, 10.375, 10.3125, 10.5625, 10.75, 11.25, 10.875, 11.0, 11.0, 12.125, 11.875, 11.625, 11.9375, 11.5625, 11.4375, 12.3125, 12.375, 12.5, 12.375, 12.3125, 12.5, 12.25, 13.125, 13.0, 12.0625, 12.75, 13.125, 12.125, 11.9375, 12.5625, 12.375, 12.875, 13.0625, 12.875, 13.4375, 13.6875, 13.875, 12.75, 14.9375, 14.625, 14.8125, 14.375, 13.75, 13.5625, 13.4375, 13.125, 12.5625, 13.3125, 12.5, 12.125, 11.9375, 12.625, 12.375, 12.8125, 12.8125, 11.9375, 11.375, 11.375, 11.6875, 12.0, 12.5, 12.9375, 12.6875, 12.25, 11.75, 11.4375, 12.25, 12.375, 12.4375, 12.6875, 13.0625, 12.5, 12.0625, 12.0625, 13.125, 12.0625, 12.0625, 12.4375, 11.8125, 11.5, 11.75, 11.5625, 12.25, 12.125, 11.6875, 12.375, 12.625, 12.1875, 12.125, 12.125, 12.375, 12.9375, 12.0625, 11.875, 11.9375, 12.0625, 11.75, 11.1875, 10.75, 10.9375, 11.125, 11.0, 12.1875, 11.9375, 12.0625, 12.3125, 12.8125, 12.875, 12.625, 12.8125, 11.8125, 11.3125, 11.8125, 12.3125, 12.1875, 11.875, 15.9375, 16.875, 16.375, 15.3125, 14.5625, 13.875, 14.25, 13.4375, 13.1875, 12.9375, 12.8125, 12.0, 12.125, 12.3125, 12.5625, 13.75, 13.5625, 14.1875, 14.375, 14.1875, 14.1875, 14.5, 15.125, 15.25, 14.1875, 13.4375, 13.3125, 13.1875, 12.875, 12.875, 13.25, 13.75, 14.25, 14.0, 14.0, 14.5625, 14.9375, 14.3125, 14.5625, 14.0, 14.375, 13.375, 12.75, 12.875, 13.8125, 13.5625, 13.5, 14.0, 14.625, 14.0625, 13.5, 13.8125, 13.8125, 14.125, 13.875, 14.25, 13.9375, 13.625, 13.0625, 12.375, 13.75, 13.4375, 13.25, 13.375, 13.6875, 13.875, 14.4375, 14.4375, 14.25, 14.125, 14.125, 13.75, 13.0, 13.5625, 14.125, 14.125, 14.3125, 15.1875, 10.8125, 9.9375, 9.9375, 9.625, 9.4375, 9.5, 9.625, 10.125, 10.125, 10.125, 10.25, 9.9375, 9.6875, 10.0625, 10.0, 10.1875, 10.5, 10.25, 10.375, 10.1875, 10.375, 10.5, 10.3125, 10.0625, 10.1875, 11.3125, 11.0, 10.625, 10.3125, 10.6875, 10.5625, 10.8125, 10.625, 11.3125, 11.875, 12.1875, 12.1875, 12.1875, 13.0, 11.75, 11.9375, 11.9375, 11.875, 11.6875, 11.6875, 12.0, 11.8125, 11.625, 12.0625, 12.0, 12.125, 12.375, 11.9375, 11.9375, 11.8125, 11.8125, 12.875, 12.1875, 11.4375, 11.875, 12.375, 13.4375, 12.5, 12.625, 11.875, 11.875, 11.875, 12.375, 12.125, 12.6875, 12.25, 11.875, 12.1875, 13.0, 13.375, 12.875, 12.1875, 12.4375, 12.3125, 12.875, 13.25, 12.5, 12.25, 11.5, 11.625, 11.625, 11.375, 11.75, 11.6875, 11.25, 11.875, 12.0625, 11.9375, 11.6875, 12.25, 11.3125, 11.375, 11.1875, 11.875, 13.0, 12.5, 12.5625, 12.25, 12.125, 12.4375, 12.875, 12.5, 13.1875, 12.9375, 12.0, 10.375, 9.9375, 10.0, 9.875, 10.1875, 10.125, 10.125, 10.375, 10.0, 9.8125, 10.0625, 10.375, 10.5, 11.25, 11.6875, 11.25, 11.125, 9.9375, 9.1875, 9.375, 9.4375, 9.375, 9.3125, 9.375, 9.4375, 9.4375, 10.8125, 11.9375, 11.25, 11.1875, 11.25, 11.5, 11.375, 11.0625, 10.6875, 11.0, 12.0, 12.375, 12.3125, 12.625, 11.9375, 11.9375, 12.125, 12.4375, 11.4375, 12.1875, 12.4375, 11.5, 12.875, 12.75, 12.1875, 12.375, 13.3125, 12.875, 12.875, 12.5625, 12.125, 11.6875, 10.6875, 11.125, 11.5, 10.9375, 11.3125, 10.8125, 11.0625, 11.5625, 11.8125, 11.125, 11.25, 11.5, 11.125, 11.125, 11.125, 12.25, 11.6875, 11.75, 11.375, 10.625, 10.9375, 10.6875, 10.3125, 10.3125, 10.0625, 10.375, 10.0625, 10.1875, 10.25, 9.9375, 9.625, 9.5625, 9.375, 9.1875]","[56320.0, 11072.0, 8640.0, 9216.0, 7616.0, 7616.0, 9792.0, 9216.0, 8640.0, 7616.0, 6720.0, 9216.0, 8640.0, 9216.0, 9216.0, 11072.0, 13376.0, 11072.0, 8640.0, 9216.0, 8640.0, 9792.0, 11072.0, 11072.0, 15168.0, 9792.0, 9216.0, 9792.0, 12544.0, 16128.0, 16128.0, 11840.0, 11072.0, 11840.0, 9792.0, 14272.0, 22016.0, 32128.0, 16128.0, 24960.0, 12544.0, 11840.0, 12544.0, 13376.0, 11840.0, 15168.0, 18304.0, 30208.0, 28288.0, 38656.0, 23424.0, 19456.0, 15168.0, 18304.0, 28288.0, 20736.0, 16128.0, 34304.0, 22016.0, 32128.0, 41216.0, 26624.0, 252928.0, 16128.0, 11840.0, 9792.0, 9792.0, 12544.0, 18304.0, 14272.0, 15168.0, 13376.0, 30208.0, 52992.0, 34304.0, 32128.0, 23424.0, 59904.0, 59904.0, 59904.0, 63744.0, 56320.0, 59904.0, 81920.0, 68096.0, 41216.0, 52992.0, 119296.0, 76800.0, 46592.0, 105472.0, 68096.0, 38656.0, 41216.0, 56320.0, 63744.0, 98816.0, 98816.0, 46592.0, 105472.0, 144384.0, 174080.0, 41216.0, 72192.0, 36352.0, 36352.0, 52992.0, 24960.0, 38656.0, 119296.0, 323584.0, 144384.0, 98816.0, 366592.0, 22016.0, 26624.0, 68096.0, 49664.0, 87040.0, 112128.0, 536576.0, 286720.0, 81920.0, 76800.0, 52992.0, 38656.0, 76800.0, 63744.0, 98816.0, 15168.0, 18304.0, 38656.0, 30208.0, 32128.0, 19456.0, 46592.0, 46592.0, 46592.0, 49664.0, 68096.0, 43776.0, 23424.0, 43776.0, 63744.0, 153600.0, 56320.0, 92672.0, 26624.0, 30208.0, 32128.0, 135168.0, 46592.0, 36352.0, 22016.0, 23424.0, 24960.0, 30208.0, 87040.0, 32128.0, 43776.0, 98816.0, 52992.0, 43776.0, 41216.0, 135168.0, 38656.0, 87040.0, 63744.0, 41216.0, 22016.0, 68096.0, 34304.0, 162816.0, 34304.0, 24960.0, 63744.0, 59904.0, 81920.0, 76800.0, 81920.0, 68096.0, 26624.0, 22016.0, 13376.0, 13376.0, 20736.0, 23424.0, 38656.0, 22016.0, 34304.0, 16128.0, 38656.0, 52992.0, 36352.0, 68096.0, 43776.0, 18304.0, 22016.0, 49664.0, 76800.0, 63744.0, 49664.0, 52992.0, 28288.0, 87040.0, 92672.0, 56320.0, 56320.0, 76800.0, 56320.0, 28288.0, 20736.0, 23424.0, 19456.0, 26624.0, 56320.0, 46592.0, 18304.0, 18304.0, 14272.0, 16128.0, 30208.0, 18304.0, 26624.0, 30208.0, 49664.0, 49664.0, 49664.0, 43776.0, 52992.0, 72192.0, 24960.0, 126976.0, 112128.0, 112128.0, 28288.0, 26624.0, 38656.0, 41216.0, 119296.0, 162816.0, 24960.0, 32128.0, 56320.0, 98816.0, 28288.0, 17152.0, 15168.0, 18304.0, 20736.0, 18304.0, 23424.0, 63744.0, 38656.0, 28288.0, 28288.0, 15168.0, 22016.0, 20736.0, 24960.0, 32128.0, 32128.0, 30208.0, 19456.0, 28288.0, 17152.0, 30208.0, 24960.0, 26624.0, 28288.0, 43776.0, 63744.0, 38656.0, 32128.0, 52992.0, 36352.0, 36352.0, 87040.0, 76800.0, 13376.0, 16128.0, 32128.0, 30208.0, 26624.0, 32128.0, 18304.0, 14272.0, 17152.0, 19456.0, 26624.0, 17152.0, 20736.0, 15168.0, 18304.0, 23424.0, 28288.0, 22016.0, 14272.0, 13376.0, 16128.0, 87040.0, 98816.0, 112128.0, 81920.0, 34304.0, 19456.0, 19456.0, 24960.0, 16128.0, 19456.0, 23424.0, 38656.0, 59904.0, 19456.0, 16128.0, 24960.0, 30208.0, 34304.0, 36352.0, 32128.0, 26624.0, 56320.0, 126976.0, 144384.0, 126976.0, 52992.0, 32128.0, 28288.0, 81920.0, 59904.0, 49664.0, 22016.0, 20736.0, 76800.0, 36352.0, 68096.0, 43776.0, 41216.0, 15168.0, 23424.0, 16128.0, 36352.0, 19456.0, 26624.0, 43776.0, 34304.0, 72192.0, 72192.0, 46592.0, 18304.0, 28288.0, 34304.0, 76800.0, 59904.0, 52992.0, 87040.0, 366592.0, 1130496.0, 139460608.0, 729088.0, 8355840.0, 5406720.0, 1867776.0, 4784128.0, 5767168.0, 11468800.0, 5406720.0, 10092544.0, 2719744.0, 7864320.0, 12976128.0, 7864320.0, 4489216.0, 10092544.0, 6127616.0, 16646144.0, 6520832.0, 3948544.0, 5406720.0, 2392064.0, 286720.0, 223232.0, 196608.0, 237568.0, 415744.0, 647168.0, 778240.0, 252928.0, 87040.0, 72192.0, 98816.0, 126976.0, 223232.0, 223232.0, 268288.0, 536576.0, 286720.0, 415744.0, 444416.0, 252928.0, 209920.0, 237568.0, 209920.0, 174080.0, 223232.0, 286720.0, 778240.0, 391168.0, 827392.0, 647168.0, 1286144.0, 471040.0, 237568.0, 444416.0, 237568.0, 391168.0, 536576.0, 1204224.0, 729088.0, 3489792.0, 3948544.0, 2244608.0, 1548288.0, 880640.0, 569344.0, 1130496.0, 688128.0, 1458176.0, 1753088.0, 6946816.0, 5079040.0, 3948544.0, 4489216.0, 6946816.0, 14680064.0, 16646144.0, 5079040.0, 3719168.0, 4489216.0, 2555904.0, 1646592.0, 2113536.0, 1548288.0, 937984.0, 778240.0, 1646592.0, 1867776.0, 2392064.0, 1867776.0, 1548288.0, 729088.0, 1286144.0, 471040.0, 444416.0, 415744.0, 501760.0, 196608.0, 46592.0, 8128.0, 7616.0, 7616.0, 8640.0, 23424.0, 24960.0, 22016.0, 34304.0, 30208.0, 32128.0, 41216.0, 59904.0, 49664.0, 135168.0, 68096.0, 72192.0, 98816.0, 59904.0, 76800.0, 135168.0, 126976.0, 209920.0, 223232.0, 346112.0, 18304.0, 11840.0, 10432.0, 16128.0, 26624.0, 24960.0, 23424.0, 16128.0, 19456.0, 30208.0, 59904.0, 72192.0, 38656.0, 43776.0, 15168.0, 11072.0, 30208.0, 41216.0, 15168.0, 13376.0, 11840.0, 16128.0, 30208.0, 23424.0, 26624.0, 17152.0, 30208.0, 34304.0, 30208.0, 14272.0, 11072.0, 13376.0, 23424.0, 19456.0, 23424.0, 23424.0, 17152.0, 13376.0, 13376.0, 10432.0, 28288.0, 32128.0, 26624.0, 30208.0, 38656.0, 28288.0, 24960.0, 13376.0, 18304.0, 28288.0, 34304.0, 7616.0, 6336.0, 6336.0, 8128.0, 16128.0, 16128.0, 18304.0, 18304.0, 19456.0, 24960.0, 32128.0, 56320.0, 43776.0, 46592.0, 32128.0, 14272.0, 19456.0, 15168.0, 22016.0, 14272.0, 12544.0, 19456.0, 20736.0, 19456.0, 20736.0, 20736.0, 14272.0, 10432.0, 13376.0, 16128.0, 19456.0, 30208.0, 19456.0, 14272.0, 17152.0, 28288.0, 20736.0, 14272.0, 12544.0, 17152.0, 20736.0, 16128.0, 17152.0, 15168.0, 14272.0, 14272.0, 28288.0, 38656.0, 46592.0, 92672.0, 38656.0, 59904.0, 32128.0, 52992.0, 56320.0, 41216.0, 26624.0, 17152.0, 34304.0, 72192.0, 196608.0, 196608.0, 196608.0, 105472.0, 38656.0, 46592.0, 34304.0, 38656.0, 72192.0, 52992.0, 135168.0, 144384.0, 135168.0, 49664.0, 46592.0, 32128.0, 22016.0, 36352.0, 59904.0, 30208.0, 30208.0, 41216.0, 46592.0, 32128.0, 43776.0, 43776.0, 41216.0, 49664.0, 59904.0, 59904.0, 52992.0, 41216.0, 49664.0, 56320.0, 38656.0, 43776.0, 72192.0, 49664.0, 52992.0, 87040.0, 92672.0, 92672.0, 81920.0, 87040.0, 81920.0, 76800.0, 41216.0, 30208.0, 32128.0, 119296.0, 135168.0, 268288.0, 237568.0, 174080.0, 209920.0, 196608.0, 323584.0, 323584.0, 286720.0, 135168.0, 162816.0, 144384.0, 223232.0, 92672.0, 41216.0, 81920.0, 119296.0, 126976.0, 76800.0, 81920.0, 153600.0, 68096.0, 46592.0, 87040.0, 76800.0, 209920.0, 501760.0, 209920.0, 126976.0, 209920.0, 153600.0, 119296.0, 305152.0, 268288.0, 252928.0, 112128.0, 184320.0, 305152.0, 196608.0, 112128.0, 126976.0, 346112.0, 444416.0, 252928.0, 444416.0, 536576.0, 223232.0, 153600.0, 827392.0, 880640.0, 688128.0, 937984.0, 606208.0, 162816.0, 76800.0, 105472.0, 135168.0, 415744.0, 119296.0, 49664.0, 135168.0, 56320.0, 144384.0, 92672.0, 112128.0, 32128.0, 26624.0, 49664.0, 536576.0, 126976.0, 87040.0, 14272.0, 9792.0, 14272.0, 23424.0, 43776.0, 68096.0, 119296.0, 52992.0, 38656.0, 1064960.0, 1990656.0, 305152.0, 87040.0, 135168.0, 536576.0, 286720.0, 174080.0, 105472.0, 59904.0, 59904.0, 144384.0, 72192.0, 68096.0, 144384.0, 162816.0, 56320.0, 59904.0, 81920.0, 144384.0, 153600.0, 72192.0, 98816.0, 98816.0, 59904.0, 34304.0, 49664.0, 98816.0, 252928.0, 223232.0, 237568.0, 252928.0, 209920.0, 223232.0, 237568.0, 144384.0, 196608.0, 126976.0, 126976.0, 153600.0, 209920.0, 76800.0, 98816.0, 237568.0, 153600.0, 196608.0, 87040.0, 126976.0, 252928.0, 196608.0, 223232.0, 196608.0, 268288.0, 196608.0, 305152.0, 366592.0, 268288.0, 162816.0, 184320.0, 209920.0, 92672.0, 63744.0, 174080.0, 92672.0, 52992.0, 59904.0, 59904.0, 105472.0, 144384.0, 87040.0, 63744.0, 196608.0, 305152.0, 237568.0, 444416.0, 323584.0, 286720.0, 471040.0, 778240.0, 286720.0, 135168.0, 209920.0, 391168.0, 415744.0, 729088.0, 305152.0, 323584.0, 305152.0, 223232.0, 119296.0, 68096.0, 56320.0, 43776.0, 63744.0, 135168.0, 444416.0, 162816.0, 305152.0, 209920.0, 569344.0, 209920.0, 76800.0, 28288.0, 105472.0, 153600.0, 126976.0, 415744.0, 346112.0, 184320.0, 268288.0, 23424.0, 7616.0, 8128.0, 11072.0, 13376.0, 15168.0, 20736.0, 16128.0, 10432.0, 16128.0, 22016.0, 38656.0, 92672.0, 28288.0, 15168.0, 15168.0, 22016.0, 23424.0, 18304.0, 43776.0, 81920.0, 59904.0, 49664.0, 223232.0, 209920.0, 92672.0, 38656.0, 28288.0, 52992.0, 43776.0, 68096.0, 59904.0, 38656.0, 36352.0, 43776.0, 32128.0, 49664.0, 56320.0, 63744.0, 87040.0, 81920.0, 81920.0, 49664.0, 52992.0, 43776.0, 174080.0, 536576.0, 391168.0, 305152.0, 366592.0, 286720.0, 209920.0, 252928.0, 144384.0, 112128.0, 174080.0, 286720.0, 184320.0, 135168.0, 144384.0, 87040.0, 76800.0, 174080.0, 153600.0, 286720.0, 153600.0, 223232.0, 209920.0, 56320.0, 119296.0, 72192.0, 76800.0, 366592.0, 444416.0, 569344.0, 729088.0, 880640.0, 415744.0, 162816.0, 196608.0, 471040.0, 569344.0, 569344.0, 366592.0, 415744.0, 391168.0, 3080192.0, 2392064.0, 415744.0, 196608.0, 59904.0, 98816.0, 112128.0, 72192.0, 49664.0, 59904.0, 41216.0, 87040.0, 174080.0, 87040.0, 105472.0, 196608.0, 105472.0, 81920.0, 41216.0, 92672.0, 252928.0, 268288.0, 237568.0, 112128.0, 7864320.0, 688128.0, 36352.0, 23424.0, 28288.0, 105472.0, 126976.0, 112128.0, 119296.0, 92672.0, 76800.0, 252928.0, 286720.0, 184320.0, 162816.0, 153600.0, 135168.0, 305152.0, 196608.0, 87040.0, 98816.0, 87040.0, 59904.0, 56320.0, 72192.0, 72192.0, 72192.0, 112128.0, 72192.0, 72192.0, 144384.0, 126976.0, 81920.0, 32128.0, 30208.0, 38656.0, 46592.0, 76800.0, 52992.0, 59904.0, 59904.0, 184320.0, 144384.0, 112128.0, 153600.0, 105472.0, 92672.0, 223232.0, 237568.0, 268288.0, 237568.0, 223232.0, 268288.0, 209920.0, 501760.0, 444416.0, 174080.0, 346112.0, 501760.0, 184320.0, 153600.0, 286720.0, 237568.0, 391168.0, 471040.0, 391168.0, 688128.0, 880640.0, 1064960.0, 346112.0, 3080192.0, 2244608.0, 2719744.0, 1753088.0, 937984.0, 778240.0, 688128.0, 501760.0, 286720.0, 606208.0, 268288.0, 184320.0, 153600.0, 305152.0, 237568.0, 366592.0, 366592.0, 153600.0, 87040.0, 87040.0, 119296.0, 162816.0, 268288.0, 415744.0, 323584.0, 209920.0, 126976.0, 92672.0, 209920.0, 237568.0, 252928.0, 323584.0, 471040.0, 268288.0, 174080.0, 174080.0, 501760.0, 174080.0, 174080.0, 252928.0, 135168.0, 98816.0, 126976.0, 105472.0, 209920.0, 184320.0, 119296.0, 237568.0, 305152.0, 196608.0, 184320.0, 184320.0, 237568.0, 415744.0, 174080.0, 144384.0, 153600.0, 174080.0, 126976.0, 72192.0, 46592.0, 56320.0, 68096.0, 59904.0, 196608.0, 153600.0, 174080.0, 223232.0, 366592.0, 391168.0, 305152.0, 366592.0, 135168.0, 81920.0, 135168.0, 223232.0, 196608.0, 144384.0, 8355840.0, 21364736.0, 12976128.0, 4489216.0, 2113536.0, 1064960.0, 1548288.0, 688128.0, 536576.0, 415744.0, 366592.0, 162816.0, 184320.0, 223232.0, 286720.0, 937984.0, 778240.0, 1458176.0, 1753088.0, 1458176.0, 1458176.0, 1990656.0, 3719168.0, 4194304.0, 1458176.0, 688128.0, 606208.0, 536576.0, 391168.0, 391168.0, 569344.0, 937984.0, 1548288.0, 1204224.0, 1204224.0, 2113536.0, 3080192.0, 1646592.0, 2113536.0, 1204224.0, 1753088.0, 647168.0, 346112.0, 391168.0, 999424.0, 778240.0, 729088.0, 1204224.0, 2244608.0, 1286144.0, 729088.0, 999424.0, 999424.0, 1368064.0, 1064960.0, 1548288.0, 1130496.0, 827392.0, 471040.0, 237568.0, 937984.0, 688128.0, 569344.0, 647168.0, 880640.0, 1064960.0, 1867776.0, 1867776.0, 1548288.0, 1368064.0, 1368064.0, 937984.0, 444416.0, 778240.0, 1368064.0, 1368064.0, 1646592.0, 3948544.0, 49664.0, 20736.0, 20736.0, 15168.0, 12544.0, 13376.0, 15168.0, 24960.0, 24960.0, 24960.0, 28288.0, 20736.0, 16128.0, 23424.0, 22016.0, 26624.0, 36352.0, 28288.0, 32128.0, 26624.0, 32128.0, 36352.0, 30208.0, 23424.0, 26624.0, 81920.0, 59904.0, 41216.0, 30208.0, 43776.0, 38656.0, 49664.0, 41216.0, 81920.0, 144384.0, 196608.0, 196608.0, 196608.0, 444416.0, 126976.0, 153600.0, 153600.0, 144384.0, 119296.0, 119296.0, 162816.0, 135168.0, 112128.0, 174080.0, 162816.0, 184320.0, 237568.0, 153600.0, 153600.0, 135168.0, 135168.0, 391168.0, 196608.0, 92672.0, 144384.0, 237568.0, 688128.0, 268288.0, 305152.0, 144384.0, 144384.0, 144384.0, 237568.0, 184320.0, 323584.0, 209920.0, 144384.0, 196608.0, 444416.0, 647168.0, 391168.0, 196608.0, 252928.0, 223232.0, 391168.0, 569344.0, 268288.0, 209920.0, 98816.0, 112128.0, 112128.0, 87040.0, 126976.0, 119296.0, 76800.0, 144384.0, 174080.0, 153600.0, 119296.0, 209920.0, 81920.0, 87040.0, 72192.0, 144384.0, 444416.0, 268288.0, 286720.0, 209920.0, 184320.0, 252928.0, 391168.0, 268288.0, 536576.0, 415744.0, 162816.0, 32128.0, 20736.0, 22016.0, 19456.0, 26624.0, 24960.0, 24960.0, 32128.0, 22016.0, 18304.0, 23424.0, 32128.0, 36352.0, 76800.0, 119296.0, 76800.0, 68096.0, 20736.0, 9792.0, 11840.0, 12544.0, 11840.0, 11072.0, 11840.0, 12544.0, 12544.0, 49664.0, 153600.0, 76800.0, 72192.0, 76800.0, 98816.0, 87040.0, 63744.0, 43776.0, 59904.0, 162816.0, 237568.0, 223232.0, 305152.0, 153600.0, 153600.0, 184320.0, 252928.0, 92672.0, 196608.0, 252928.0, 98816.0, 391168.0, 346112.0, 196608.0, 